"Block","Trial","Arrow","Condition","Correct","RT","subj_num","Time","Task"
1,1,2,0,1,3.0776,1,1,"Flanker"
1,2,1,0,1,0.76228,1,1,"Flanker"
1,3,1,2,1,2.6548,1,1,"Flanker"
1,4,2,2,1,0.68876,1,1,"Flanker"
1,5,1,2,1,0.4793,1,1,"Flanker"
1,6,2,0,1,0.39623,1,1,"Flanker"
1,7,1,1,1,0.67126,1,1,"Flanker"
1,8,2,1,1,0.41732,1,1,"Flanker"
1,9,2,1,1,0.55807,1,1,"Flanker"
1,10,1,0,1,0.40478,1,1,"Flanker"
1,11,2,1,1,0.37825,1,1,"Flanker"
1,12,2,0,1,0.45474,1,1,"Flanker"
1,13,1,2,1,0.39288,1,1,"Flanker"
1,14,1,2,1,0.45197,1,1,"Flanker"
1,15,2,0,1,0.30542,1,1,"Flanker"
1,16,2,2,1,0.41378,1,1,"Flanker"
1,17,2,0,1,0.48755,1,1,"Flanker"
1,18,2,1,1,0.40941,1,1,"Flanker"
1,19,2,0,1,0.46895,1,1,"Flanker"
1,20,1,0,1,0.48776,1,1,"Flanker"
1,21,1,0,1,0.37491,1,1,"Flanker"
1,22,2,2,1,0.3453,1,1,"Flanker"
1,23,1,0,1,0.36691,1,1,"Flanker"
1,24,2,1,1,0.28695,1,1,"Flanker"
1,25,1,0,1,0.3693,1,1,"Flanker"
1,26,1,2,0,0.27544,1,1,"Flanker"
1,27,2,0,1,0.36488,1,1,"Flanker"
1,28,2,2,1,0.48172,1,1,"Flanker"
1,29,2,2,1,0.54146,1,1,"Flanker"
1,30,2,2,1,0.57299,1,1,"Flanker"
1,31,2,1,1,0.38165,1,1,"Flanker"
1,32,2,0,1,0.3762,1,1,"Flanker"
1,33,1,2,1,0.43684,1,1,"Flanker"
1,34,1,0,1,0.51381,1,1,"Flanker"
1,35,1,0,1,0.43308,1,1,"Flanker"
1,36,1,2,1,0.57292,1,1,"Flanker"
1,37,2,1,1,0.42916,1,1,"Flanker"
1,38,1,0,1,0.43442,1,1,"Flanker"
1,39,1,1,1,0.42258,1,1,"Flanker"
1,40,2,1,1,0.37803,1,1,"Flanker"
1,41,2,1,1,0.47146,1,1,"Flanker"
1,42,1,2,0,0.40294,1,1,"Flanker"
1,43,2,1,1,0.43405,1,1,"Flanker"
1,44,2,2,1,0.50127,1,1,"Flanker"
1,45,2,1,1,0.36475,1,1,"Flanker"
1,46,2,1,1,0.38286,1,1,"Flanker"
1,47,1,2,1,0.44167,1,1,"Flanker"
1,48,2,1,1,0.40793,1,1,"Flanker"
1,49,1,1,1,0.3621,1,1,"Flanker"
1,50,1,1,1,0.45494,1,1,"Flanker"
1,51,1,2,1,0.39661,1,1,"Flanker"
1,52,1,0,1,0.42267,1,1,"Flanker"
1,53,2,2,1,0.44328,1,1,"Flanker"
1,54,1,2,1,0.37507,1,1,"Flanker"
1,55,2,1,1,0.36423,1,1,"Flanker"
1,56,2,1,1,0.44837,1,1,"Flanker"
1,57,2,0,1,0.45262,1,1,"Flanker"
1,58,1,2,1,0.39365,1,1,"Flanker"
1,59,1,0,1,0.36475,1,1,"Flanker"
1,60,1,1,1,0.42415,1,1,"Flanker"
1,61,2,0,1,0.40348,1,1,"Flanker"
1,62,1,1,1,0.36081,1,1,"Flanker"
1,63,1,1,1,0.40372,1,1,"Flanker"
1,64,2,2,0,0.38236,1,1,"Flanker"
1,65,2,1,1,0.44301,1,1,"Flanker"
1,66,1,1,1,0.38388,1,1,"Flanker"
1,67,2,2,1,0.65066,1,1,"Flanker"
1,68,2,1,1,0.43859,1,1,"Flanker"
1,69,1,0,1,0.37867,1,1,"Flanker"
1,70,2,0,1,0.35875,1,1,"Flanker"
1,71,1,0,1,0.32961,1,1,"Flanker"
1,72,2,0,1,0.32266,1,1,"Flanker"
1,73,2,0,1,0.40746,1,1,"Flanker"
1,74,1,1,1,0.3864,1,1,"Flanker"
1,75,1,0,0,0.42035,1,1,"Flanker"
1,76,2,2,1,0.40163,1,1,"Flanker"
1,77,1,1,1,0.42256,1,1,"Flanker"
1,78,1,1,1,0.45876,1,1,"Flanker"
1,79,1,0,1,0.39851,1,1,"Flanker"
1,80,2,0,1,0.37274,1,1,"Flanker"
1,81,1,1,1,0.39024,1,1,"Flanker"
1,82,1,1,1,0.41889,1,1,"Flanker"
1,83,1,2,0,0.52689,1,1,"Flanker"
1,84,1,0,1,0.44631,1,1,"Flanker"
1,85,2,1,1,0.42612,1,1,"Flanker"
1,86,1,1,1,0.36761,1,1,"Flanker"
1,87,1,2,1,0.43457,1,1,"Flanker"
1,88,2,0,1,0.35477,1,1,"Flanker"
1,89,1,1,1,0.3391,1,1,"Flanker"
1,90,2,1,1,0.35641,1,1,"Flanker"
1,91,1,2,0,0.38538,1,1,"Flanker"
1,92,2,2,1,0.51698,1,1,"Flanker"
1,93,1,2,1,0.51381,1,1,"Flanker"
1,94,2,2,1,0.54599,1,1,"Flanker"
1,95,2,2,0,0.37012,1,1,"Flanker"
1,96,2,2,1,0.63675,1,1,"Flanker"
1,97,2,1,1,0.43061,1,1,"Flanker"
1,98,2,0,1,0.46679,1,1,"Flanker"
1,99,2,2,1,0.64306,1,1,"Flanker"
1,100,2,0,1,0.39511,1,1,"Flanker"
1,101,2,0,1,0.48022,1,1,"Flanker"
1,102,2,2,1,0.56428,1,1,"Flanker"
1,103,2,2,1,0.39633,1,1,"Flanker"
1,104,2,2,1,0.43189,1,1,"Flanker"
1,105,2,0,1,0.3807,1,1,"Flanker"
1,106,1,0,1,0.58459,1,1,"Flanker"
1,107,2,0,1,0.45584,1,1,"Flanker"
1,108,1,0,1,0.44548,1,1,"Flanker"
1,109,2,0,1,0.44288,1,1,"Flanker"
1,110,1,2,1,0.44787,1,1,"Flanker"
1,111,2,1,1,0.34899,1,1,"Flanker"
1,112,2,0,1,0.39861,1,1,"Flanker"
1,113,1,0,1,0.35429,1,1,"Flanker"
1,114,1,1,1,0.39906,1,1,"Flanker"
1,115,1,2,1,0.41134,1,1,"Flanker"
1,116,2,1,1,0.38192,1,1,"Flanker"
1,117,2,2,1,0.51463,1,1,"Flanker"
1,118,2,2,0,0.43327,1,1,"Flanker"
1,119,1,2,1,0.38959,1,1,"Flanker"
1,120,1,0,1,0.45609,1,1,"Flanker"
1,121,2,2,1,0.43033,1,1,"Flanker"
1,122,1,1,1,0.40472,1,1,"Flanker"
1,123,1,1,1,0.66528,1,1,"Flanker"
1,124,1,2,1,0.60256,1,1,"Flanker"
1,125,1,1,1,0.42576,1,1,"Flanker"
1,126,1,0,1,0.40699,1,1,"Flanker"
1,127,2,0,0,0.27496,1,1,"Flanker"
1,128,1,1,1,0.4206,1,1,"Flanker"
1,129,1,1,1,0.36188,1,1,"Flanker"
1,130,2,2,1,0.40338,1,1,"Flanker"
1,131,1,0,1,0.34463,1,1,"Flanker"
1,132,2,0,1,0.34576,1,1,"Flanker"
1,133,1,1,1,0.40658,1,1,"Flanker"
1,134,2,1,1,0.33806,1,1,"Flanker"
1,135,1,2,1,0.59625,1,1,"Flanker"
1,136,1,1,1,0.5243,1,1,"Flanker"
1,137,2,1,1,0.41222,1,1,"Flanker"
1,138,1,0,1,0.3929,1,1,"Flanker"
1,139,1,2,1,0.48426,1,1,"Flanker"
1,140,1,2,1,0.4256,1,1,"Flanker"
1,141,1,1,1,0.3978,1,1,"Flanker"
1,142,1,2,1,0.50539,1,1,"Flanker"
1,143,2,2,1,0.5467,1,1,"Flanker"
1,144,1,0,1,0.41848,1,1,"Flanker"
2,1,1,0,1,0.66349,1,1,"Flanker"
2,2,1,1,1,0.42519,1,1,"Flanker"
2,3,1,1,1,0.40828,1,1,"Flanker"
2,4,1,2,0,0.45265,1,1,"Flanker"
2,5,2,1,1,0.43468,1,1,"Flanker"
2,6,2,0,1,0.42117,1,1,"Flanker"
2,7,2,2,1,0.57724,1,1,"Flanker"
2,8,1,0,1,0.44954,1,1,"Flanker"
2,9,2,2,1,0.38241,1,1,"Flanker"
2,10,1,2,1,0.39384,1,1,"Flanker"
2,11,2,0,1,0.37432,1,1,"Flanker"
2,12,2,0,1,0.42517,1,1,"Flanker"
2,13,1,1,0,0.42152,1,1,"Flanker"
2,14,1,0,1,0.46524,1,1,"Flanker"
2,15,2,2,1,0.44084,1,1,"Flanker"
2,16,1,1,1,0.46876,1,1,"Flanker"
2,17,1,2,1,0.6664,1,1,"Flanker"
2,18,2,1,1,0.41379,1,1,"Flanker"
2,19,2,2,1,0.52055,1,1,"Flanker"
2,20,2,0,1,0.37493,1,1,"Flanker"
2,21,1,0,1,0.4293,1,1,"Flanker"
2,22,1,0,1,0.42464,1,1,"Flanker"
2,23,1,2,1,0.60479,1,1,"Flanker"
2,24,1,1,1,0.43692,1,1,"Flanker"
2,25,1,2,0,0.41036,1,1,"Flanker"
2,26,2,2,1,0.43137,1,1,"Flanker"
2,27,2,2,1,0.48331,1,1,"Flanker"
2,28,1,0,1,0.37732,1,1,"Flanker"
2,29,1,0,1,0.48562,1,1,"Flanker"
2,30,2,0,1,0.40255,1,1,"Flanker"
2,31,1,2,1,0.37543,1,1,"Flanker"
2,32,1,0,1,0.44376,1,1,"Flanker"
2,33,1,1,1,0.45783,1,1,"Flanker"
2,34,2,1,1,0.39649,1,1,"Flanker"
2,35,1,2,1,0.40733,1,1,"Flanker"
2,36,2,2,1,0.42857,1,1,"Flanker"
2,37,2,1,1,0.4408,1,1,"Flanker"
2,38,1,1,1,0.34206,1,1,"Flanker"
2,39,2,2,1,0.33756,1,1,"Flanker"
2,40,2,1,1,0.48229,1,1,"Flanker"
2,41,2,1,1,0.45642,1,1,"Flanker"
2,42,1,1,1,0.38907,1,1,"Flanker"
2,43,2,0,1,0.34075,1,1,"Flanker"
2,44,1,0,1,0.32326,1,1,"Flanker"
2,45,1,1,1,0.51932,1,1,"Flanker"
2,46,1,1,1,0.46211,1,1,"Flanker"
2,47,2,0,1,0.42702,1,1,"Flanker"
2,48,2,0,1,0.4871,1,1,"Flanker"
2,49,1,2,1,0.41429,1,1,"Flanker"
2,50,1,0,1,0.46679,1,1,"Flanker"
2,51,2,0,1,0.36798,1,1,"Flanker"
2,52,1,2,1,0.4113,1,1,"Flanker"
2,53,2,2,1,0.39188,1,1,"Flanker"
2,54,2,1,1,0.47457,1,1,"Flanker"
2,55,2,2,1,0.55432,1,1,"Flanker"
2,56,2,0,1,0.35285,1,1,"Flanker"
2,57,2,0,1,0.34581,1,1,"Flanker"
2,58,1,0,1,0.42419,1,1,"Flanker"
2,59,1,2,0,0.43526,1,1,"Flanker"
2,60,2,0,1,0.35901,1,1,"Flanker"
2,61,2,2,0,0.4333,1,1,"Flanker"
2,62,2,1,1,0.36544,1,1,"Flanker"
2,63,1,1,1,0.38452,1,1,"Flanker"
2,64,1,1,1,0.44495,1,1,"Flanker"
2,65,2,1,1,0.37925,1,1,"Flanker"
2,66,1,0,1,0.34929,1,1,"Flanker"
2,67,2,0,1,0.41547,1,1,"Flanker"
2,68,2,1,1,0.43773,1,1,"Flanker"
2,69,1,1,1,0.36269,1,1,"Flanker"
2,70,1,2,0,0.29302,1,1,"Flanker"
2,71,1,2,1,0.46222,1,1,"Flanker"
2,72,1,2,1,0.9067,1,1,"Flanker"
2,73,1,1,1,0.42697,1,1,"Flanker"
2,74,1,0,1,0.36212,1,1,"Flanker"
2,75,2,2,1,0.41818,1,1,"Flanker"
2,76,1,1,1,0.28134,1,1,"Flanker"
2,77,2,0,1,0.38449,1,1,"Flanker"
2,78,2,0,1,0.41258,1,1,"Flanker"
2,79,1,0,1,0.35432,1,1,"Flanker"
2,80,2,1,1,0.36453,1,1,"Flanker"
2,81,2,2,1,0.39043,1,1,"Flanker"
2,82,1,1,1,0.35516,1,1,"Flanker"
2,83,1,2,0,0.40551,1,1,"Flanker"
2,84,2,0,1,0.38568,1,1,"Flanker"
2,85,1,0,1,0.40625,1,1,"Flanker"
2,86,2,2,1,0.36141,1,1,"Flanker"
2,87,2,2,1,0.41239,1,1,"Flanker"
2,88,1,1,1,0.37633,1,1,"Flanker"
2,89,1,1,1,0.38278,1,1,"Flanker"
2,90,1,0,1,0.40902,1,1,"Flanker"
2,91,1,1,1,0.35432,1,1,"Flanker"
2,92,2,1,1,0.39133,1,1,"Flanker"
2,93,1,1,1,0.40271,1,1,"Flanker"
2,94,1,2,0,0.43261,1,1,"Flanker"
2,95,1,0,1,0.44212,1,1,"Flanker"
2,96,2,0,1,0.39361,1,1,"Flanker"
2,97,2,0,1,0.49125,1,1,"Flanker"
2,98,2,1,1,0.63312,1,1,"Flanker"
2,99,2,0,1,0.38649,1,1,"Flanker"
2,100,2,0,1,0.37622,1,1,"Flanker"
2,101,1,2,1,0.47468,1,1,"Flanker"
2,102,1,0,1,0.40047,1,1,"Flanker"
2,103,1,0,1,0.46893,1,1,"Flanker"
2,104,2,2,1,0.43324,1,1,"Flanker"
2,105,2,1,1,0.45584,1,1,"Flanker"
2,106,2,1,1,0.38918,1,1,"Flanker"
2,107,2,1,1,0.33499,1,1,"Flanker"
2,108,1,2,1,0.37015,1,1,"Flanker"
2,109,2,1,1,0.33427,1,1,"Flanker"
2,110,1,2,1,0.43298,1,1,"Flanker"
2,111,2,2,1,0.34065,1,1,"Flanker"
2,112,2,1,1,0.41539,1,1,"Flanker"
2,113,2,1,1,0.33398,1,1,"Flanker"
2,114,1,1,1,0.34144,1,1,"Flanker"
2,115,2,1,1,0.38415,1,1,"Flanker"
2,116,2,1,1,0.53346,1,1,"Flanker"
2,117,1,2,1,0.46743,1,1,"Flanker"
2,118,2,0,1,0.37675,1,1,"Flanker"
2,119,1,0,1,0.3394,1,1,"Flanker"
2,120,1,1,1,0.43931,1,1,"Flanker"
2,121,2,2,1,0.34033,1,1,"Flanker"
2,122,2,2,0,0.414,1,1,"Flanker"
2,123,1,2,1,0.48337,1,1,"Flanker"
2,124,1,2,1,0.41775,1,1,"Flanker"
2,125,1,0,1,0.32463,1,1,"Flanker"
2,126,1,2,0,0.44704,1,1,"Flanker"
2,127,2,1,1,0.3412,1,1,"Flanker"
2,128,1,0,1,0.42257,1,1,"Flanker"
2,129,2,1,1,0.37968,1,1,"Flanker"
2,130,2,2,1,0.41544,1,1,"Flanker"
2,131,1,1,1,0.4035,1,1,"Flanker"
2,132,1,2,1,0.40825,1,1,"Flanker"
2,133,2,0,1,0.40461,1,1,"Flanker"
2,134,2,2,1,0.42713,1,1,"Flanker"
2,135,2,0,1,0.39646,1,1,"Flanker"
2,136,2,2,1,0.41556,1,1,"Flanker"
2,137,1,0,1,0.41225,1,1,"Flanker"
2,138,2,2,1,0.40104,1,1,"Flanker"
2,139,2,2,1,0.39709,1,1,"Flanker"
2,140,1,2,1,0.40193,1,1,"Flanker"
2,141,2,0,1,0.31775,1,1,"Flanker"
2,142,1,0,1,0.44,1,1,"Flanker"
2,143,2,1,1,0.39072,1,1,"Flanker"
2,144,1,1,1,0.37542,1,1,"Flanker"
3,1,1,1,1,0.98035,1,1,"Flanker"
3,2,1,1,1,0.40631,1,1,"Flanker"
3,3,1,2,1,0.53179,1,1,"Flanker"
3,4,1,0,1,0.33149,1,1,"Flanker"
3,5,1,1,1,0.32457,1,1,"Flanker"
3,6,2,1,1,0.46205,1,1,"Flanker"
3,7,1,0,1,0.41213,1,1,"Flanker"
3,8,1,2,1,0.46494,1,1,"Flanker"
3,9,1,0,1,0.38256,1,1,"Flanker"
3,10,2,0,1,0.45899,1,1,"Flanker"
3,11,1,1,1,0.37601,1,1,"Flanker"
3,12,1,0,1,0.43492,1,1,"Flanker"
3,13,2,1,1,0.41565,1,1,"Flanker"
3,14,2,0,1,0.43831,1,1,"Flanker"
3,15,2,2,1,0.42468,1,1,"Flanker"
3,16,2,0,1,0.39813,1,1,"Flanker"
3,17,1,2,1,0.43354,1,1,"Flanker"
3,18,1,2,1,0.47715,1,1,"Flanker"
3,19,2,2,1,0.41245,1,1,"Flanker"
3,20,1,1,1,0.40751,1,1,"Flanker"
3,21,1,0,1,0.40299,1,1,"Flanker"
3,22,1,1,1,0.43201,1,1,"Flanker"
3,23,1,0,1,0.43629,1,1,"Flanker"
3,24,1,0,1,0.44133,1,1,"Flanker"
3,25,1,1,1,0.42199,1,1,"Flanker"
3,26,1,1,1,0.49907,1,1,"Flanker"
3,27,1,1,1,0.44931,1,1,"Flanker"
3,28,1,1,1,0.39842,1,1,"Flanker"
3,29,1,0,1,0.44276,1,1,"Flanker"
3,30,1,0,1,0.42286,1,1,"Flanker"
3,31,1,2,1,0.60564,1,1,"Flanker"
3,32,2,0,1,0.49221,1,1,"Flanker"
3,33,2,1,1,0.41891,1,1,"Flanker"
3,34,2,0,1,0.41545,1,1,"Flanker"
3,35,1,1,1,0.51583,1,1,"Flanker"
3,36,2,0,1,0.42001,1,1,"Flanker"
3,37,1,1,1,0.37442,1,1,"Flanker"
3,38,1,2,1,0.42961,1,1,"Flanker"
3,39,2,1,1,0.44166,1,1,"Flanker"
3,40,2,1,1,0.47105,1,1,"Flanker"
3,41,2,2,1,0.54595,1,1,"Flanker"
3,42,1,1,1,0.4256,1,1,"Flanker"
3,43,1,1,1,0.46326,1,1,"Flanker"
3,44,1,0,1,0.38847,1,1,"Flanker"
3,45,1,1,1,0.36744,1,1,"Flanker"
3,46,2,1,1,0.42784,1,1,"Flanker"
3,47,1,0,1,0.38406,1,1,"Flanker"
3,48,2,1,1,0.39603,1,1,"Flanker"
3,49,2,0,1,0.46174,1,1,"Flanker"
3,50,2,2,1,0.52377,1,1,"Flanker"
3,51,1,0,1,0.65993,1,1,"Flanker"
3,52,1,1,1,0.48579,1,1,"Flanker"
3,53,2,0,1,0.41218,1,1,"Flanker"
3,54,2,2,1,0.53637,1,1,"Flanker"
3,55,2,0,1,0.39064,1,1,"Flanker"
3,56,2,0,1,0.40247,1,1,"Flanker"
3,57,2,0,1,0.40646,1,1,"Flanker"
3,58,1,2,1,0.49806,1,1,"Flanker"
3,59,1,2,1,0.44229,1,1,"Flanker"
3,60,2,1,1,0.40572,1,1,"Flanker"
3,61,1,1,1,0.44908,1,1,"Flanker"
3,62,2,1,1,0.4074,1,1,"Flanker"
3,63,2,1,1,0.45256,1,1,"Flanker"
3,64,1,2,1,0.52036,1,1,"Flanker"
3,65,1,1,1,0.54629,1,1,"Flanker"
3,66,2,2,1,0.43234,1,1,"Flanker"
3,67,1,0,1,0.46287,1,1,"Flanker"
3,68,2,2,1,0.40253,1,1,"Flanker"
3,69,1,0,1,0.45473,1,1,"Flanker"
3,70,2,2,1,0.33918,1,1,"Flanker"
3,71,2,2,1,0.46913,1,1,"Flanker"
3,72,2,1,1,0.45009,1,1,"Flanker"
3,73,1,2,1,0.43299,1,1,"Flanker"
3,74,1,2,1,0.41266,1,1,"Flanker"
3,75,2,2,1,0.4742,1,1,"Flanker"
3,76,1,2,1,0.43934,1,1,"Flanker"
3,77,1,1,1,0.4119,1,1,"Flanker"
3,78,2,2,1,0.49646,1,1,"Flanker"
3,79,1,2,1,0.45629,1,1,"Flanker"
3,80,2,2,1,0.87537,1,1,"Flanker"
3,81,1,1,1,0.53012,1,1,"Flanker"
3,82,2,0,1,0.43517,1,1,"Flanker"
3,83,1,1,1,0.44649,1,1,"Flanker"
3,84,2,2,1,0.46895,1,1,"Flanker"
3,85,1,0,1,0.402,1,1,"Flanker"
3,86,2,2,1,0.38931,1,1,"Flanker"
3,87,1,0,1,0.39462,1,1,"Flanker"
3,88,2,0,1,0.37331,1,1,"Flanker"
3,89,2,0,0,0.28035,1,1,"Flanker"
3,90,2,1,1,0.52921,1,1,"Flanker"
3,91,1,1,1,0.45763,1,1,"Flanker"
3,92,2,0,1,0.43074,1,1,"Flanker"
3,93,2,0,1,0.51409,1,1,"Flanker"
3,94,2,2,1,0.47462,1,1,"Flanker"
3,95,2,2,1,0.44795,1,1,"Flanker"
3,96,1,2,1,0.49188,1,1,"Flanker"
3,97,2,1,1,0.41381,1,1,"Flanker"
3,98,2,1,1,0.40901,1,1,"Flanker"
3,99,2,2,1,0.39527,1,1,"Flanker"
3,100,2,2,1,0.44024,1,1,"Flanker"
3,101,2,1,1,0.34719,1,1,"Flanker"
3,102,1,2,1,0.62266,1,1,"Flanker"
3,103,2,2,1,0.46473,1,1,"Flanker"
3,104,2,1,1,0.39163,1,1,"Flanker"
3,105,2,2,1,0.62639,1,1,"Flanker"
3,106,2,1,1,0.39557,1,1,"Flanker"
3,107,2,0,1,0.36891,1,1,"Flanker"
3,108,1,0,1,0.46566,1,1,"Flanker"
3,109,1,2,1,0.51972,1,1,"Flanker"
3,110,2,2,1,0.38102,1,1,"Flanker"
3,111,1,2,1,0.52803,1,1,"Flanker"
3,112,1,2,1,0.54441,1,1,"Flanker"
3,113,1,2,1,0.52777,1,1,"Flanker"
3,114,1,2,1,0.45521,1,1,"Flanker"
3,115,1,1,1,0.46895,1,1,"Flanker"
3,116,2,0,1,0.4814,1,1,"Flanker"
3,117,2,0,1,0.53654,1,1,"Flanker"
3,118,2,0,1,0.39915,1,1,"Flanker"
3,119,1,1,1,0.46647,1,1,"Flanker"
3,120,2,1,1,0.44002,1,1,"Flanker"
3,121,2,1,1,0.41422,1,1,"Flanker"
3,122,2,0,1,0.42615,1,1,"Flanker"
3,123,1,0,1,0.47138,1,1,"Flanker"
3,124,1,2,1,0.45132,1,1,"Flanker"
3,125,1,0,1,0.45668,1,1,"Flanker"
3,126,2,0,1,0.43832,1,1,"Flanker"
3,127,2,0,1,0.46872,1,1,"Flanker"
3,128,1,2,1,0.45777,1,1,"Flanker"
3,129,2,2,1,0.43772,1,1,"Flanker"
3,130,2,2,1,0.55463,1,1,"Flanker"
3,131,2,2,1,0.45182,1,1,"Flanker"
3,132,1,2,1,0.47284,1,1,"Flanker"
3,133,1,2,0,0.33368,1,1,"Flanker"
3,134,1,0,1,0.503,1,1,"Flanker"
3,135,2,1,1,0.41331,1,1,"Flanker"
3,136,1,0,0,0.37029,1,1,"Flanker"
3,137,2,1,1,0.43044,1,1,"Flanker"
3,138,2,1,1,0.37153,1,1,"Flanker"
3,139,1,0,1,0.43936,1,1,"Flanker"
3,140,2,0,1,0.403,1,1,"Flanker"
3,141,2,1,1,0.40619,1,1,"Flanker"
3,142,1,0,1,0.44492,1,1,"Flanker"
3,143,1,0,1,0.42739,1,1,"Flanker"
3,144,2,1,1,0.52508,1,1,"Flanker"
4,1,2,0,1,1.6809,1,1,"Flanker"
4,2,2,2,1,0.43533,1,1,"Flanker"
4,3,2,1,1,0.36747,1,1,"Flanker"
4,4,2,1,1,0.34121,1,1,"Flanker"
4,5,2,2,1,0.50322,1,1,"Flanker"
4,6,1,0,1,0.44427,1,1,"Flanker"
4,7,2,1,1,0.41136,1,1,"Flanker"
4,8,2,1,1,0.43076,1,1,"Flanker"
4,9,1,2,1,0.42584,1,1,"Flanker"
4,10,1,2,1,0.45537,1,1,"Flanker"
4,11,1,0,1,0.37213,1,1,"Flanker"
4,12,2,2,1,0.42385,1,1,"Flanker"
4,13,1,0,1,0.4287,1,1,"Flanker"
4,14,1,0,1,0.41637,1,1,"Flanker"
4,15,1,2,1,0.51816,1,1,"Flanker"
4,16,1,1,1,0.38758,1,1,"Flanker"
4,17,1,0,1,0.40087,1,1,"Flanker"
4,18,1,2,1,0.36589,1,1,"Flanker"
4,19,2,2,1,2.7057,1,1,"Flanker"
4,20,1,1,1,0.45025,1,1,"Flanker"
4,21,2,2,1,0.44708,1,1,"Flanker"
4,22,2,0,1,0.40548,1,1,"Flanker"
4,23,2,1,1,0.41697,1,1,"Flanker"
4,24,1,1,1,0.54124,1,1,"Flanker"
4,25,1,1,1,0.39676,1,1,"Flanker"
4,26,1,1,1,0.34551,1,1,"Flanker"
4,27,1,1,1,0.35409,1,1,"Flanker"
4,28,1,1,1,0.295,1,1,"Flanker"
4,29,1,0,1,0.35937,1,1,"Flanker"
4,30,1,1,1,0.34757,1,1,"Flanker"
4,31,1,2,1,0.2708,1,1,"Flanker"
4,32,2,1,1,0.33484,1,1,"Flanker"
4,33,2,1,1,0.34552,1,1,"Flanker"
4,34,2,0,1,0.47596,1,1,"Flanker"
4,35,2,2,1,0.36157,1,1,"Flanker"
4,36,1,2,1,0.46707,1,1,"Flanker"
4,37,2,0,1,0.34622,1,1,"Flanker"
4,38,2,0,1,0.30013,1,1,"Flanker"
4,39,1,1,1,0.40558,1,1,"Flanker"
4,40,2,1,1,0.29893,1,1,"Flanker"
4,41,1,0,1,0.38029,1,1,"Flanker"
4,42,1,1,1,0.45559,1,1,"Flanker"
4,43,1,0,1,0.41244,1,1,"Flanker"
4,44,2,0,1,0.49552,1,1,"Flanker"
4,45,1,2,1,0.34312,1,1,"Flanker"
4,46,2,2,1,0.3283,1,1,"Flanker"
4,47,2,1,1,0.43413,1,1,"Flanker"
4,48,2,0,1,0.47269,1,1,"Flanker"
4,49,2,0,1,0.42969,1,1,"Flanker"
4,50,2,0,1,0.41918,1,1,"Flanker"
4,51,2,2,1,0.54166,1,1,"Flanker"
4,52,1,2,1,0.51801,1,1,"Flanker"
4,53,1,2,1,0.47597,1,1,"Flanker"
4,54,2,0,1,0.38611,1,1,"Flanker"
4,55,2,0,1,0.47716,1,1,"Flanker"
4,56,1,1,1,0.421,1,1,"Flanker"
4,57,2,1,1,0.42717,1,1,"Flanker"
4,58,2,1,1,0.46087,1,1,"Flanker"
4,59,2,0,1,0.3772,1,1,"Flanker"
4,60,2,1,1,0.3733,1,1,"Flanker"
4,61,2,1,1,0.30552,1,1,"Flanker"
4,62,1,2,1,0.49308,1,1,"Flanker"
4,63,1,0,1,0.50614,1,1,"Flanker"
4,64,1,2,1,1.193,1,1,"Flanker"
4,65,1,0,1,0.35093,1,1,"Flanker"
4,66,1,2,1,0.3947,1,1,"Flanker"
4,67,1,0,1,0.36545,1,1,"Flanker"
4,68,2,2,0,0.35238,1,1,"Flanker"
4,69,1,0,1,0.41997,1,1,"Flanker"
4,70,2,2,1,0.39894,1,1,"Flanker"
4,71,1,1,1,0.44356,1,1,"Flanker"
4,72,2,2,0,0.42618,1,1,"Flanker"
4,73,2,0,1,0.37557,1,1,"Flanker"
4,74,1,2,1,0.45644,1,1,"Flanker"
4,75,2,0,1,0.34301,1,1,"Flanker"
4,76,2,1,1,0.46531,1,1,"Flanker"
4,77,2,2,1,0.4955,1,1,"Flanker"
4,78,2,1,1,0.41358,1,1,"Flanker"
4,79,1,0,1,0.58522,1,1,"Flanker"
4,80,1,2,1,0.61825,1,1,"Flanker"
4,81,1,1,1,0.48458,1,1,"Flanker"
4,82,1,2,1,0.48971,1,1,"Flanker"
4,83,2,0,1,0.391,1,1,"Flanker"
4,84,2,2,0,0.46554,1,1,"Flanker"
4,85,1,0,1,0.41519,1,1,"Flanker"
4,86,1,1,1,0.42148,1,1,"Flanker"
4,87,2,1,1,0.40884,1,1,"Flanker"
4,88,1,2,1,0.35921,1,1,"Flanker"
4,89,1,1,1,0.39117,1,1,"Flanker"
4,90,1,2,1,0.37988,1,1,"Flanker"
4,91,1,2,1,0.38254,1,1,"Flanker"
4,92,1,0,1,0.37091,1,1,"Flanker"
4,93,1,2,1,0.34244,1,1,"Flanker"
4,94,1,1,1,0.37919,1,1,"Flanker"
4,95,1,1,1,0.31746,1,1,"Flanker"
4,96,2,0,1,0.439,1,1,"Flanker"
4,97,2,2,1,0.4261,1,1,"Flanker"
4,98,2,0,1,0.38614,1,1,"Flanker"
4,99,1,2,1,0.39574,1,1,"Flanker"
4,100,2,1,1,0.37548,1,1,"Flanker"
4,101,2,1,1,0.47431,1,1,"Flanker"
4,102,1,1,1,0.39069,1,1,"Flanker"
4,103,1,0,1,0.45268,1,1,"Flanker"
4,104,2,0,1,0.43328,1,1,"Flanker"
4,105,2,0,1,0.37313,1,1,"Flanker"
4,106,2,2,1,0.47192,1,1,"Flanker"
4,107,2,2,1,0.51874,1,1,"Flanker"
4,108,1,0,1,0.46107,1,1,"Flanker"
4,109,2,0,1,0.33751,1,1,"Flanker"
4,110,2,2,1,0.40417,1,1,"Flanker"
4,111,2,0,1,0.37729,1,1,"Flanker"
4,112,2,1,1,0.39719,1,1,"Flanker"
4,113,2,1,1,0.39253,1,1,"Flanker"
4,114,1,1,1,0.41947,1,1,"Flanker"
4,115,2,2,1,0.36131,1,1,"Flanker"
4,116,1,0,1,0.37277,1,1,"Flanker"
4,117,1,2,1,0.56984,1,1,"Flanker"
4,118,1,1,1,0.43993,1,1,"Flanker"
4,119,2,2,1,0.47539,1,1,"Flanker"
4,120,1,1,1,0.65704,1,1,"Flanker"
4,121,1,0,1,0.51604,1,1,"Flanker"
4,122,2,1,1,0.45819,1,1,"Flanker"
4,123,2,1,1,0.31291,1,1,"Flanker"
4,124,2,0,1,0.37015,1,1,"Flanker"
4,125,2,2,1,0.27762,1,1,"Flanker"
4,126,2,2,1,0.28492,1,1,"Flanker"
4,127,1,1,0,0.32778,1,1,"Flanker"
4,128,1,2,1,0.57676,1,1,"Flanker"
4,129,1,0,1,0.39551,1,1,"Flanker"
4,130,1,2,1,0.6218,1,1,"Flanker"
4,131,1,2,1,0.38236,1,1,"Flanker"
4,132,1,1,1,0.29044,1,1,"Flanker"
4,133,1,0,1,0.22698,1,1,"Flanker"
4,134,1,0,1,0.29229,1,1,"Flanker"
4,135,2,1,1,0.50106,1,1,"Flanker"
4,136,1,0,1,0.51502,1,1,"Flanker"
4,137,2,1,1,0.36213,1,1,"Flanker"
4,138,2,0,0,0.31674,1,1,"Flanker"
4,139,2,2,1,0.43798,1,1,"Flanker"
4,140,2,2,1,0.43644,1,1,"Flanker"
4,141,1,0,1,0.49662,1,1,"Flanker"
4,142,1,1,1,0.7338,1,1,"Flanker"
4,143,2,0,1,0.2904,1,1,"Flanker"
4,144,2,2,0,0.33205,1,1,"Flanker"
5,1,2,2,1,3.3236,1,1,"Flanker"
5,2,1,1,1,0.52497,1,1,"Flanker"
5,3,2,0,1,0.42108,1,1,"Flanker"
5,4,2,0,1,0.41858,1,1,"Flanker"
5,5,1,1,1,0.42356,1,1,"Flanker"
5,6,2,0,1,0.29735,1,1,"Flanker"
5,7,2,0,1,0.4691,1,1,"Flanker"
5,8,2,0,1,0.40956,1,1,"Flanker"
5,9,1,0,1,0.38216,1,1,"Flanker"
5,10,1,2,0,0.39287,1,1,"Flanker"
5,11,2,0,1,0.34873,1,1,"Flanker"
5,12,1,0,1,0.32023,1,1,"Flanker"
5,13,2,1,1,0.38659,1,1,"Flanker"
5,14,2,1,1,0.42132,1,1,"Flanker"
5,15,2,2,1,0.29756,1,1,"Flanker"
5,16,1,2,1,0.40223,1,1,"Flanker"
5,17,1,2,0,0.31948,1,1,"Flanker"
5,18,1,1,1,0.4092,1,1,"Flanker"
5,19,1,1,1,0.32414,1,1,"Flanker"
5,20,1,2,1,0.52008,1,1,"Flanker"
5,21,1,0,1,0.31108,1,1,"Flanker"
5,22,1,1,1,0.33174,1,1,"Flanker"
5,23,1,0,1,0.35512,1,1,"Flanker"
5,24,2,1,1,0.43782,1,1,"Flanker"
5,25,2,1,1,0.39391,1,1,"Flanker"
5,26,2,1,1,0.30937,1,1,"Flanker"
5,27,2,1,1,0.30664,1,1,"Flanker"
5,28,1,0,1,0.4166,1,1,"Flanker"
5,29,1,0,1,0.38262,1,1,"Flanker"
5,30,2,2,1,0.38649,1,1,"Flanker"
5,31,2,1,1,0.34267,1,1,"Flanker"
5,32,2,1,1,0.46699,1,1,"Flanker"
5,33,1,0,1,0.34923,1,1,"Flanker"
5,34,2,0,1,0.39131,1,1,"Flanker"
5,35,1,0,1,0.28398,1,1,"Flanker"
5,36,1,1,0,0.25267,1,1,"Flanker"
5,37,2,0,1,0.4455,1,1,"Flanker"
5,38,1,0,1,0.30657,1,1,"Flanker"
5,39,2,1,1,0.31566,1,1,"Flanker"
5,40,1,2,1,0.30999,1,1,"Flanker"
5,41,1,1,1,0.41718,1,1,"Flanker"
5,42,2,0,1,0.28381,1,1,"Flanker"
5,43,1,0,1,0.30975,1,1,"Flanker"
5,44,2,2,1,0.32039,1,1,"Flanker"
5,45,1,2,1,0.30728,1,1,"Flanker"
5,46,2,2,1,0.29994,1,1,"Flanker"
5,47,1,0,1,0.30905,1,1,"Flanker"
5,48,2,0,1,0.32789,1,1,"Flanker"
5,49,2,1,1,0.45778,1,1,"Flanker"
5,50,2,2,1,0.375,1,1,"Flanker"
5,51,2,2,1,0.32118,1,1,"Flanker"
5,52,1,2,1,0.50787,1,1,"Flanker"
5,53,1,1,1,0.49157,1,1,"Flanker"
5,54,1,1,1,0.40131,1,1,"Flanker"
5,55,2,0,1,0.50893,1,1,"Flanker"
5,56,2,2,1,0.51558,1,1,"Flanker"
5,57,2,1,1,0.394,1,1,"Flanker"
5,58,1,0,1,0.4866,1,1,"Flanker"
5,59,1,1,1,0.42762,1,1,"Flanker"
5,60,1,0,1,0.36769,1,1,"Flanker"
5,61,2,2,0,0.29909,1,1,"Flanker"
5,62,2,1,1,0.35708,1,1,"Flanker"
5,63,1,2,1,0.4829,1,1,"Flanker"
5,64,2,0,1,0.29721,1,1,"Flanker"
5,65,1,2,1,0.28783,1,1,"Flanker"
5,66,2,2,1,0.37115,1,1,"Flanker"
5,67,2,2,0,0.26033,1,1,"Flanker"
5,68,2,2,1,0.47695,1,1,"Flanker"
5,69,1,2,1,0.32371,1,1,"Flanker"
5,70,1,1,1,0.45401,1,1,"Flanker"
5,71,1,1,1,0.38554,1,1,"Flanker"
5,72,1,2,1,0.37513,1,1,"Flanker"
5,73,2,2,1,0.43459,1,1,"Flanker"
5,74,2,1,1,0.42202,1,1,"Flanker"
5,75,1,1,1,0.54652,1,1,"Flanker"
5,76,2,2,1,0.33928,1,1,"Flanker"
5,77,2,2,1,0.35852,1,1,"Flanker"
5,78,1,1,1,1.2164,1,1,"Flanker"
5,79,1,1,1,0.90437,1,1,"Flanker"
5,80,1,2,1,0.77637,1,1,"Flanker"
5,81,1,1,1,0.42019,1,1,"Flanker"
5,82,2,0,1,0.35212,1,1,"Flanker"
5,83,1,2,1,0.44717,1,1,"Flanker"
5,84,2,0,1,0.37979,1,1,"Flanker"
5,85,2,0,1,0.39759,1,1,"Flanker"
5,86,1,2,1,0.38508,1,1,"Flanker"
5,87,1,0,1,0.41357,1,1,"Flanker"
5,88,2,0,1,0.44117,1,1,"Flanker"
5,89,2,1,1,0.35707,1,1,"Flanker"
5,90,2,1,1,0.33676,1,1,"Flanker"
5,91,2,1,1,0.28348,1,1,"Flanker"
5,92,1,0,1,0.45321,1,1,"Flanker"
5,93,2,0,1,0.36971,1,1,"Flanker"
5,94,1,1,1,0.38175,1,1,"Flanker"
5,95,2,2,1,0.33642,1,1,"Flanker"
5,96,2,2,0,0.2933,1,1,"Flanker"
5,97,1,2,1,0.42861,1,1,"Flanker"
5,98,1,2,1,0.37806,1,1,"Flanker"
5,99,1,0,1,0.49256,1,1,"Flanker"
5,100,2,2,1,0.42774,1,1,"Flanker"
5,101,2,0,1,0.42286,1,1,"Flanker"
5,102,2,1,1,0.48414,1,1,"Flanker"
5,103,2,0,1,0.33767,1,1,"Flanker"
5,104,1,2,1,0.4617,1,1,"Flanker"
5,105,1,2,1,0.63421,1,1,"Flanker"
5,106,2,1,1,0.3637,1,1,"Flanker"
5,107,1,0,1,0.38372,1,1,"Flanker"
5,108,1,2,1,0.5215,1,1,"Flanker"
5,109,1,0,1,0.40245,1,1,"Flanker"
5,110,1,2,0,0.43924,1,1,"Flanker"
5,111,1,1,1,0.42666,1,1,"Flanker"
5,112,1,0,1,0.47001,1,1,"Flanker"
5,113,2,1,1,0.43747,1,1,"Flanker"
5,114,1,1,1,0.37676,1,1,"Flanker"
5,115,2,2,1,0.32492,1,1,"Flanker"
5,116,2,0,1,0.40841,1,1,"Flanker"
5,117,1,1,1,0.36237,1,1,"Flanker"
5,118,2,2,1,0.36568,1,1,"Flanker"
5,119,1,0,1,0.28183,1,1,"Flanker"
5,120,1,1,1,0.39509,1,1,"Flanker"
5,121,2,1,1,0.36608,1,1,"Flanker"
5,122,1,0,1,0.40009,1,1,"Flanker"
5,123,1,1,1,0.35791,1,1,"Flanker"
5,124,2,2,1,0.43275,1,1,"Flanker"
5,125,1,2,1,0.42233,1,1,"Flanker"
5,126,1,0,1,0.5692,1,1,"Flanker"
5,127,1,2,1,0.8722,1,1,"Flanker"
5,128,2,1,1,0.39375,1,1,"Flanker"
5,129,2,0,1,0.32475,1,1,"Flanker"
5,130,1,0,1,0.40673,1,1,"Flanker"
5,131,2,1,1,0.34676,1,1,"Flanker"
5,132,1,2,1,0.36696,1,1,"Flanker"
5,133,2,2,1,0.35242,1,1,"Flanker"
5,134,1,2,1,0.38197,1,1,"Flanker"
5,135,2,2,1,0.34345,1,1,"Flanker"
5,136,2,0,1,0.39314,1,1,"Flanker"
5,137,2,1,1,0.34884,1,1,"Flanker"
5,138,1,1,1,0.43984,1,1,"Flanker"
5,139,2,2,1,0.43711,1,1,"Flanker"
5,140,2,1,1,0.40893,1,1,"Flanker"
5,141,2,0,1,0.35157,1,1,"Flanker"
5,142,1,1,1,0.40101,1,1,"Flanker"
5,143,2,0,1,0.27557,1,1,"Flanker"
5,144,1,0,1,0.40652,1,1,"Flanker"
1,1,1,1,1,0.86749,1,2,"Flanker"
1,2,1,2,1,0.48292,1,2,"Flanker"
1,3,1,1,1,0.38748,1,2,"Flanker"
1,4,1,2,1,0.41165,1,2,"Flanker"
1,5,1,1,1,0.37694,1,2,"Flanker"
1,6,2,2,1,0.39642,1,2,"Flanker"
1,7,1,2,1,0.40932,1,2,"Flanker"
1,8,2,0,1,0.30858,1,2,"Flanker"
1,9,2,0,1,0.40775,1,2,"Flanker"
1,10,1,0,1,0.38711,1,2,"Flanker"
1,11,2,1,1,0.31929,1,2,"Flanker"
1,12,2,1,1,0.37664,1,2,"Flanker"
1,13,1,1,1,0.42899,1,2,"Flanker"
1,14,2,1,1,0.3057,1,2,"Flanker"
1,15,1,0,1,0.33072,1,2,"Flanker"
1,16,1,1,1,0.35892,1,2,"Flanker"
1,17,2,2,1,0.33561,1,2,"Flanker"
1,18,2,0,1,0.39534,1,2,"Flanker"
1,19,2,0,1,0.37534,1,2,"Flanker"
1,20,1,0,1,0.39436,1,2,"Flanker"
1,21,2,2,1,0.37381,1,2,"Flanker"
1,22,2,1,1,0.36977,1,2,"Flanker"
1,23,1,2,0,0.36435,1,2,"Flanker"
1,24,2,0,1,0.35853,1,2,"Flanker"
1,25,1,2,1,0.37121,1,2,"Flanker"
1,26,1,0,1,0.42214,1,2,"Flanker"
1,27,2,2,1,0.35416,1,2,"Flanker"
1,28,1,2,1,0.29996,1,2,"Flanker"
1,29,1,2,0,0.31156,1,2,"Flanker"
1,30,2,0,1,0.32035,1,2,"Flanker"
1,31,2,1,1,0.36442,1,2,"Flanker"
1,32,1,0,1,0.38872,1,2,"Flanker"
1,33,2,2,1,0.41783,1,2,"Flanker"
1,34,2,1,1,0.40699,1,2,"Flanker"
1,35,1,0,1,0.37759,1,2,"Flanker"
1,36,1,2,0,0.33305,1,2,"Flanker"
1,37,2,2,1,0.35424,1,2,"Flanker"
1,38,2,0,1,0.36233,1,2,"Flanker"
1,39,1,0,1,0.41333,1,2,"Flanker"
1,40,2,2,1,0.40318,1,2,"Flanker"
1,41,2,2,1,0.4133,1,2,"Flanker"
1,42,1,1,1,0.4182,1,2,"Flanker"
1,43,1,0,1,0.3596,1,2,"Flanker"
1,44,2,0,1,0.34506,1,2,"Flanker"
1,45,1,2,1,0.38933,1,2,"Flanker"
1,46,2,1,1,0.33753,1,2,"Flanker"
1,47,2,2,0,0.42667,1,2,"Flanker"
1,48,2,1,1,0.35134,1,2,"Flanker"
1,49,2,1,1,0.29861,1,2,"Flanker"
1,50,2,1,1,0.33152,1,2,"Flanker"
1,51,2,2,0,0.37369,1,2,"Flanker"
1,52,2,1,1,0.3406,1,2,"Flanker"
1,53,1,2,1,0.40416,1,2,"Flanker"
1,54,1,1,1,0.38532,1,2,"Flanker"
1,55,1,2,1,0.38117,1,2,"Flanker"
1,56,2,1,0,0.38463,1,2,"Flanker"
1,57,2,2,1,0.48275,1,2,"Flanker"
1,58,1,0,1,0.32048,1,2,"Flanker"
1,59,2,2,1,0.47627,1,2,"Flanker"
1,60,2,1,1,0.32287,1,2,"Flanker"
1,61,1,0,1,0.38752,1,2,"Flanker"
1,62,1,2,1,0.39363,1,2,"Flanker"
1,63,2,0,1,0.37136,1,2,"Flanker"
1,64,1,2,1,0.38994,1,2,"Flanker"
1,65,2,1,1,0.29795,1,2,"Flanker"
1,66,1,0,1,0.34169,1,2,"Flanker"
1,67,2,0,1,0.28624,1,2,"Flanker"
1,68,1,1,1,0.29577,1,2,"Flanker"
1,69,1,2,1,0.3939,1,2,"Flanker"
1,70,2,0,1,0.28498,1,2,"Flanker"
1,71,1,2,1,0.31802,1,2,"Flanker"
1,72,2,1,1,0.39169,1,2,"Flanker"
1,73,2,1,1,0.38866,1,2,"Flanker"
1,74,1,1,1,0.26202,1,2,"Flanker"
1,75,1,2,1,0.39497,1,2,"Flanker"
1,76,1,1,1,0.41223,1,2,"Flanker"
1,77,2,0,1,0.35323,1,2,"Flanker"
1,78,2,2,0,0.3962,1,2,"Flanker"
1,79,1,1,1,0.40832,1,2,"Flanker"
1,80,2,1,1,0.28358,1,2,"Flanker"
1,81,2,0,1,0.31734,1,2,"Flanker"
1,82,1,0,0,0.2945,1,2,"Flanker"
1,83,1,1,1,0.4156,1,2,"Flanker"
1,84,2,2,1,0.32549,1,2,"Flanker"
1,85,1,2,0,0.25494,1,2,"Flanker"
1,86,2,0,1,0.3191,1,2,"Flanker"
1,87,1,0,1,0.40285,1,2,"Flanker"
1,88,2,2,1,0.35748,1,2,"Flanker"
1,89,2,2,0,0.29627,1,2,"Flanker"
1,90,2,0,1,0.29923,1,2,"Flanker"
1,91,1,0,1,0.38065,1,2,"Flanker"
1,92,1,2,0,0.31221,1,2,"Flanker"
1,93,2,1,1,0.33047,1,2,"Flanker"
1,94,2,1,1,0.37176,1,2,"Flanker"
1,95,1,1,0,0.28597,1,2,"Flanker"
1,96,1,1,1,0.41633,1,2,"Flanker"
1,97,1,0,0,0.32668,1,2,"Flanker"
1,98,2,2,1,0.3514,1,2,"Flanker"
1,99,2,0,1,0.29008,1,2,"Flanker"
1,100,1,1,1,0.3877,1,2,"Flanker"
1,101,1,1,1,0.38255,1,2,"Flanker"
1,102,1,0,1,0.40396,1,2,"Flanker"
1,103,2,2,1,0.47102,1,2,"Flanker"
1,104,1,2,1,0.39707,1,2,"Flanker"
1,105,1,1,1,0.38391,1,2,"Flanker"
1,106,1,0,1,0.30815,1,2,"Flanker"
1,107,1,2,0,0.37324,1,2,"Flanker"
1,108,1,1,1,0.36208,1,2,"Flanker"
1,109,2,0,1,0.34754,1,2,"Flanker"
1,110,2,0,1,0.36798,1,2,"Flanker"
1,111,1,2,1,0.4186,1,2,"Flanker"
1,112,2,0,1,0.29769,1,2,"Flanker"
1,113,1,1,1,0.34504,1,2,"Flanker"
1,114,2,1,1,0.3478,1,2,"Flanker"
1,115,2,2,1,0.35767,1,2,"Flanker"
1,116,1,0,1,0.3774,1,2,"Flanker"
1,117,1,0,1,0.36423,1,2,"Flanker"
1,118,1,0,1,0.29509,1,2,"Flanker"
1,119,1,2,1,0.28967,1,2,"Flanker"
1,120,2,1,1,0.33899,1,2,"Flanker"
1,121,2,2,0,0.38999,1,2,"Flanker"
1,122,2,2,1,0.40961,1,2,"Flanker"
1,123,1,2,1,0.42122,1,2,"Flanker"
1,124,1,0,1,0.44244,1,2,"Flanker"
1,125,1,0,1,0.35366,1,2,"Flanker"
1,126,2,0,1,0.37786,1,2,"Flanker"
1,127,1,1,1,0.34053,1,2,"Flanker"
1,128,2,2,1,0.32041,1,2,"Flanker"
1,129,1,1,0,0.33197,1,2,"Flanker"
1,130,1,2,0,0.32512,1,2,"Flanker"
1,131,2,1,1,0.31897,1,2,"Flanker"
1,132,1,0,1,0.37663,1,2,"Flanker"
1,133,1,1,1,0.34904,1,2,"Flanker"
1,134,1,1,1,0.33487,1,2,"Flanker"
1,135,2,0,1,0.4418,1,2,"Flanker"
1,136,2,1,1,0.34102,1,2,"Flanker"
1,137,2,1,1,0.24338,1,2,"Flanker"
1,138,2,0,1,0.24,1,2,"Flanker"
1,139,2,0,1,0.30636,1,2,"Flanker"
1,140,2,2,1,0.32343,1,2,"Flanker"
1,141,1,0,0,0.37248,1,2,"Flanker"
1,142,1,1,1,0.37673,1,2,"Flanker"
1,143,2,2,1,0.40659,1,2,"Flanker"
1,144,2,0,1,0.38616,1,2,"Flanker"
2,1,2,0,1,0.46701,1,2,"Flanker"
2,2,2,0,1,0.29749,1,2,"Flanker"
2,3,2,2,0,0.41804,1,2,"Flanker"
2,4,1,1,1,0.39928,1,2,"Flanker"
2,5,1,2,0,0.41039,1,2,"Flanker"
2,6,1,1,1,0.3755,1,2,"Flanker"
2,7,1,0,1,0.35389,1,2,"Flanker"
2,8,1,2,0,0.40402,1,2,"Flanker"
2,9,1,0,1,0.30591,1,2,"Flanker"
2,10,2,1,1,0.37824,1,2,"Flanker"
2,11,1,1,1,0.31197,1,2,"Flanker"
2,12,2,1,1,0.27947,1,2,"Flanker"
2,13,2,1,0,0.30491,1,2,"Flanker"
2,14,1,2,1,0.38691,1,2,"Flanker"
2,15,1,1,1,0.40779,1,2,"Flanker"
2,16,1,0,1,0.28333,1,2,"Flanker"
2,17,1,0,1,0.29194,1,2,"Flanker"
2,18,1,2,1,0.28566,1,2,"Flanker"
2,19,2,2,1,0.35962,1,2,"Flanker"
2,20,1,1,1,0.47395,1,2,"Flanker"
2,21,2,1,1,0.29574,1,2,"Flanker"
2,22,1,2,1,0.32074,1,2,"Flanker"
2,23,2,0,1,0.26756,1,2,"Flanker"
2,24,1,1,0,0.35707,1,2,"Flanker"
2,25,2,0,1,0.31946,1,2,"Flanker"
2,26,2,2,1,0.51281,1,2,"Flanker"
2,27,1,0,1,0.36709,1,2,"Flanker"
2,28,2,2,1,0.33232,1,2,"Flanker"
2,29,1,0,1,0.3007,1,2,"Flanker"
2,30,2,2,1,0.28023,1,2,"Flanker"
2,31,1,1,1,0.33661,1,2,"Flanker"
2,32,1,2,1,0.49051,1,2,"Flanker"
2,33,1,2,1,0.37178,1,2,"Flanker"
2,34,1,1,1,0.32558,1,2,"Flanker"
2,35,2,1,1,0.40145,1,2,"Flanker"
2,36,1,0,1,0.43419,1,2,"Flanker"
2,37,2,0,1,0.35168,1,2,"Flanker"
2,38,1,1,1,0.3875,1,2,"Flanker"
2,39,2,2,1,0.32719,1,2,"Flanker"
2,40,2,0,1,0.32899,1,2,"Flanker"
2,41,2,2,1,0.25936,1,2,"Flanker"
2,42,2,0,1,0.26008,1,2,"Flanker"
2,43,2,2,1,0.26807,1,2,"Flanker"
2,44,1,0,1,0.46844,1,2,"Flanker"
2,45,1,1,1,0.33897,1,2,"Flanker"
2,46,2,1,0,0.25353,1,2,"Flanker"
2,47,2,0,1,0.34298,1,2,"Flanker"
2,48,1,2,0,0.28747,1,2,"Flanker"
2,49,1,0,1,0.40262,1,2,"Flanker"
2,50,2,1,1,0.33366,1,2,"Flanker"
2,51,1,0,1,0.33705,1,2,"Flanker"
2,52,2,2,1,0.4533,1,2,"Flanker"
2,53,1,0,0,0.2512,1,2,"Flanker"
2,54,1,0,1,0.40783,1,2,"Flanker"
2,55,1,1,1,0.35679,1,2,"Flanker"
2,56,1,0,1,0.28037,1,2,"Flanker"
2,57,2,0,1,0.37714,1,2,"Flanker"
2,58,1,1,1,0.30111,1,2,"Flanker"
2,59,2,0,1,0.2864,1,2,"Flanker"
2,60,1,2,1,0.28681,1,2,"Flanker"
2,61,2,1,1,0.21762,1,2,"Flanker"
2,62,2,2,0,0.31256,1,2,"Flanker"
2,63,2,0,1,0.40171,1,2,"Flanker"
2,64,2,2,1,0.36709,1,2,"Flanker"
2,65,2,1,1,0.28474,1,2,"Flanker"
2,66,1,2,0,0.2909,1,2,"Flanker"
2,67,2,0,1,0.29174,1,2,"Flanker"
2,68,2,1,1,0.40508,1,2,"Flanker"
2,69,1,1,0,0.30664,1,2,"Flanker"
2,70,2,0,1,0.35567,1,2,"Flanker"
2,71,2,1,1,0.29425,1,2,"Flanker"
2,72,2,2,1,0.35907,1,2,"Flanker"
2,73,1,1,1,0.32217,1,2,"Flanker"
2,74,1,1,1,0.3103,1,2,"Flanker"
2,75,2,2,1,0.39408,1,2,"Flanker"
2,76,1,2,1,0.5538,1,2,"Flanker"
2,77,1,0,1,0.31468,1,2,"Flanker"
2,78,1,1,1,0.38883,1,2,"Flanker"
2,79,1,2,0,0.38337,1,2,"Flanker"
2,80,1,1,1,0.30749,1,2,"Flanker"
2,81,1,1,1,0.35823,1,2,"Flanker"
2,82,1,2,1,1.3137,1,2,"Flanker"
2,83,2,1,1,0.44287,1,2,"Flanker"
2,84,1,0,1,0.60759,1,2,"Flanker"
2,85,1,2,1,0.54471,1,2,"Flanker"
2,86,1,0,1,0.35312,1,2,"Flanker"
2,87,2,0,1,0.39419,1,2,"Flanker"
2,88,2,1,1,0.29466,1,2,"Flanker"
2,89,2,0,1,0.39377,1,2,"Flanker"
2,90,1,1,1,0.43791,1,2,"Flanker"
2,91,1,0,1,0.36883,1,2,"Flanker"
2,92,1,2,1,0.27642,1,2,"Flanker"
2,93,1,0,1,0.29444,1,2,"Flanker"
2,94,2,2,1,0.47198,1,2,"Flanker"
2,95,1,0,1,0.3741,1,2,"Flanker"
2,96,2,0,1,0.40851,1,2,"Flanker"
2,97,1,2,1,0.24481,1,2,"Flanker"
2,98,2,0,1,0.25304,1,2,"Flanker"
2,99,2,1,0,0.30994,1,2,"Flanker"
2,100,2,1,1,0.39116,1,2,"Flanker"
2,101,1,2,0,0.49164,1,2,"Flanker"
2,102,2,2,1,0.33778,1,2,"Flanker"
2,103,2,2,1,0.45986,1,2,"Flanker"
2,104,2,1,1,0.33125,1,2,"Flanker"
2,105,1,2,0,0.30007,1,2,"Flanker"
2,106,2,1,1,0.30224,1,2,"Flanker"
2,107,2,0,1,0.3273,1,2,"Flanker"
2,108,2,2,1,0.37074,1,2,"Flanker"
2,109,2,1,1,0.36525,1,2,"Flanker"
2,110,2,1,1,0.28128,1,2,"Flanker"
2,111,1,0,1,0.48122,1,2,"Flanker"
2,112,1,1,1,0.35987,1,2,"Flanker"
2,113,2,2,1,0.36436,1,2,"Flanker"
2,114,2,0,1,0.3981,1,2,"Flanker"
2,115,2,0,1,0.30666,1,2,"Flanker"
2,116,2,1,1,0.30838,1,2,"Flanker"
2,117,1,1,0,0.28503,1,2,"Flanker"
2,118,2,0,1,0.3033,1,2,"Flanker"
2,119,2,2,1,0.5931,1,2,"Flanker"
2,120,2,2,1,0.37852,1,2,"Flanker"
2,121,1,2,1,0.43739,1,2,"Flanker"
2,122,1,2,1,0.50027,1,2,"Flanker"
2,123,2,0,1,0.63386,1,2,"Flanker"
2,124,1,1,1,0.41056,1,2,"Flanker"
2,125,2,1,1,0.3588,1,2,"Flanker"
2,126,2,1,1,0.28989,1,2,"Flanker"
2,127,1,0,1,0.6105,1,2,"Flanker"
2,128,1,2,1,0.4107,1,2,"Flanker"
2,129,2,1,1,0.40212,1,2,"Flanker"
2,130,1,1,1,0.37206,1,2,"Flanker"
2,131,2,2,1,0.41441,1,2,"Flanker"
2,132,2,2,1,0.30115,1,2,"Flanker"
2,133,2,1,1,0.3163,1,2,"Flanker"
2,134,1,2,1,0.43904,1,2,"Flanker"
2,135,2,0,1,0.34682,1,2,"Flanker"
2,136,2,0,1,0.30937,1,2,"Flanker"
2,137,1,0,0,0.28817,1,2,"Flanker"
2,138,1,2,0,0.25716,1,2,"Flanker"
2,139,1,0,1,0.32545,1,2,"Flanker"
2,140,1,0,1,0.32369,1,2,"Flanker"
2,141,1,1,1,0.31098,1,2,"Flanker"
2,142,1,2,1,0.29133,1,2,"Flanker"
2,143,2,2,1,0.42856,1,2,"Flanker"
2,144,2,2,1,0.39209,1,2,"Flanker"
3,1,2,1,1,0.33335,1,2,"Flanker"
3,2,1,2,1,0.37425,1,2,"Flanker"
3,3,1,1,1,0.34779,1,2,"Flanker"
3,4,1,0,1,0.33351,1,2,"Flanker"
3,5,2,2,1,0.40068,1,2,"Flanker"
3,6,1,0,1,0.30081,1,2,"Flanker"
3,7,2,0,1,0.35742,1,2,"Flanker"
3,8,2,0,1,0.40121,1,2,"Flanker"
3,9,2,2,1,0.33173,1,2,"Flanker"
3,10,2,1,1,0.29676,1,2,"Flanker"
3,11,1,2,0,0.32108,1,2,"Flanker"
3,12,1,1,0,0.316,1,2,"Flanker"
3,13,2,1,1,0.36564,1,2,"Flanker"
3,14,1,1,1,0.42488,1,2,"Flanker"
3,15,1,1,1,0.43643,1,2,"Flanker"
3,16,2,0,1,0.36366,1,2,"Flanker"
3,17,1,0,1,0.41318,1,2,"Flanker"
3,18,1,2,0,0.40161,1,2,"Flanker"
3,19,1,0,1,0.41315,1,2,"Flanker"
3,20,2,2,1,0.3856,1,2,"Flanker"
3,21,2,1,1,0.37275,1,2,"Flanker"
3,22,1,1,1,0.40102,1,2,"Flanker"
3,23,1,0,1,0.45265,1,2,"Flanker"
3,24,2,1,1,1.129,1,2,"Flanker"
3,25,2,0,1,0.37695,1,2,"Flanker"
3,26,1,1,1,0.41173,1,2,"Flanker"
3,27,1,2,1,0.55197,1,2,"Flanker"
3,28,2,0,1,0.34318,1,2,"Flanker"
3,29,2,2,1,0.44489,1,2,"Flanker"
3,30,2,1,1,0.28762,1,2,"Flanker"
3,31,2,0,1,0.32132,1,2,"Flanker"
3,32,2,2,1,0.39611,1,2,"Flanker"
3,33,2,0,1,0.30262,1,2,"Flanker"
3,34,2,1,1,0.30466,1,2,"Flanker"
3,35,2,2,1,0.32229,1,2,"Flanker"
3,36,1,1,1,0.49362,1,2,"Flanker"
3,37,2,1,0,0.33026,1,2,"Flanker"
3,38,1,1,1,0.46934,1,2,"Flanker"
3,39,1,0,1,0.37845,1,2,"Flanker"
3,40,1,1,1,0.3436,1,2,"Flanker"
3,41,2,1,1,0.5454,1,2,"Flanker"
3,42,2,2,1,0.57763,1,2,"Flanker"
3,43,2,0,1,0.37742,1,2,"Flanker"
3,44,2,2,1,0.42944,1,2,"Flanker"
3,45,1,0,0,0.3213,1,2,"Flanker"
3,46,1,2,1,0.20362,1,2,"Flanker"
3,47,1,1,1,0.29754,1,2,"Flanker"
3,48,2,2,0,0.39624,1,2,"Flanker"
3,49,1,1,0,0.18284,1,2,"Flanker"
3,50,1,0,1,0.31963,1,2,"Flanker"
3,51,2,2,1,0.31274,1,2,"Flanker"
3,52,1,0,0,0.28251,1,2,"Flanker"
3,53,1,2,1,0.58027,1,2,"Flanker"
3,54,2,0,1,0.33923,1,2,"Flanker"
3,55,2,0,1,0.34311,1,2,"Flanker"
3,56,1,2,0,0.24211,1,2,"Flanker"
3,57,1,2,0,0.26483,1,2,"Flanker"
3,58,2,0,1,0.40282,1,2,"Flanker"
3,59,1,2,0,0.32614,1,2,"Flanker"
3,60,1,2,1,0.27366,1,2,"Flanker"
3,61,2,0,1,0.33682,1,2,"Flanker"
3,62,2,1,0,0.23766,1,2,"Flanker"
3,63,1,2,0,0.31596,1,2,"Flanker"
3,64,2,1,0,0.26611,1,2,"Flanker"
3,65,2,2,0,0.21745,1,2,"Flanker"
3,66,2,0,1,0.15909,1,2,"Flanker"
3,67,1,2,1,0.38925,1,2,"Flanker"
3,68,2,2,1,0.25736,1,2,"Flanker"
3,69,1,2,1,0.26677,1,2,"Flanker"
3,70,1,1,1,0.38624,1,2,"Flanker"
3,71,2,0,1,0.23755,1,2,"Flanker"
3,72,1,0,1,0.30134,1,2,"Flanker"
3,73,2,0,1,0.23266,1,2,"Flanker"
3,74,2,2,0,0.25483,1,2,"Flanker"
3,75,2,2,1,0.31206,1,2,"Flanker"
3,76,1,1,1,0.33773,1,2,"Flanker"
3,77,1,2,1,0.24405,1,2,"Flanker"
3,78,2,1,0,0.26002,1,2,"Flanker"
3,79,2,2,1,0.25276,1,2,"Flanker"
3,80,2,2,0,0.33636,1,2,"Flanker"
3,81,1,2,1,0.35222,1,2,"Flanker"
3,82,1,1,1,0.42717,1,2,"Flanker"
3,83,1,2,0,0.32108,1,2,"Flanker"
3,84,2,2,1,0.35482,1,2,"Flanker"
3,85,1,0,1,0.41215,1,2,"Flanker"
3,86,2,1,1,0.36956,1,2,"Flanker"
3,87,2,1,1,0.34815,1,2,"Flanker"
3,88,1,0,1,0.39073,1,2,"Flanker"
3,89,2,0,1,0.3552,1,2,"Flanker"
3,90,2,1,1,0.29454,1,2,"Flanker"
3,91,1,2,1,0.42431,1,2,"Flanker"
3,92,2,1,1,0.29227,1,2,"Flanker"
3,93,1,0,1,0.31775,1,2,"Flanker"
3,94,1,1,1,0.39142,1,2,"Flanker"
3,95,2,2,1,0.37064,1,2,"Flanker"
3,96,1,0,1,0.40129,1,2,"Flanker"
3,97,1,0,1,0.27376,1,2,"Flanker"
3,98,1,1,1,0.2528,1,2,"Flanker"
3,99,2,2,1,0.39873,1,2,"Flanker"
3,100,1,2,0,0.27345,1,2,"Flanker"
3,101,1,1,1,0.40217,1,2,"Flanker"
3,102,1,0,1,0.35005,1,2,"Flanker"
3,103,1,2,1,0.3216,1,2,"Flanker"
3,104,2,0,1,0.34773,1,2,"Flanker"
3,105,1,0,1,0.36481,1,2,"Flanker"
3,106,2,0,1,0.32332,1,2,"Flanker"
3,107,2,2,1,0.27484,1,2,"Flanker"
3,108,1,2,0,0.25297,1,2,"Flanker"
3,109,2,2,1,0.30105,1,2,"Flanker"
3,110,1,1,1,0.34216,1,2,"Flanker"
3,111,1,1,1,0.31338,1,2,"Flanker"
3,112,2,0,0,0.26661,1,2,"Flanker"
3,113,2,2,1,0.27609,1,2,"Flanker"
3,114,1,0,1,0.38953,1,2,"Flanker"
3,115,2,0,1,0.63287,1,2,"Flanker"
3,116,1,1,1,0.4259,1,2,"Flanker"
3,117,1,0,1,0.34152,1,2,"Flanker"
3,118,1,2,1,0.25875,1,2,"Flanker"
3,119,1,0,1,0.29778,1,2,"Flanker"
3,120,1,1,1,0.28311,1,2,"Flanker"
3,121,2,0,1,0.41188,1,2,"Flanker"
3,122,2,1,1,0.34507,1,2,"Flanker"
3,123,2,1,1,0.253,1,2,"Flanker"
3,124,1,0,0,0.25193,1,2,"Flanker"
3,125,2,1,1,0.34874,1,2,"Flanker"
3,126,1,1,1,0.35075,1,2,"Flanker"
3,127,2,0,1,0.36236,1,2,"Flanker"
3,128,1,2,0,0.26787,1,2,"Flanker"
3,129,2,1,0,0.21458,1,2,"Flanker"
3,130,1,0,0,0.10072,1,2,"Flanker"
3,131,2,1,1,0.25818,1,2,"Flanker"
3,132,2,2,0,0.28329,1,2,"Flanker"
3,133,2,0,1,0.276,1,2,"Flanker"
3,134,2,0,1,0.26118,1,2,"Flanker"
3,135,1,2,0,0.23739,1,2,"Flanker"
3,136,2,2,1,0.20708,1,2,"Flanker"
3,137,1,1,1,0.44558,1,2,"Flanker"
3,138,1,2,0,0.2435,1,2,"Flanker"
3,139,1,0,0,0.29362,1,2,"Flanker"
3,140,2,1,1,0.30071,1,2,"Flanker"
3,141,1,1,0,0.30243,1,2,"Flanker"
3,142,2,1,1,0.28721,1,2,"Flanker"
3,143,2,1,1,0.3443,1,2,"Flanker"
3,144,1,0,1,0.33193,1,2,"Flanker"
4,1,1,1,1,0.5443,1,2,"Flanker"
4,2,2,2,1,0.30379,1,2,"Flanker"
4,3,1,0,1,0.32995,1,2,"Flanker"
4,4,1,0,1,0.36298,1,2,"Flanker"
4,5,1,1,1,0.28677,1,2,"Flanker"
4,6,2,0,1,0.41689,1,2,"Flanker"
4,7,2,2,1,0.27614,1,2,"Flanker"
4,8,1,0,1,0.26221,1,2,"Flanker"
4,9,2,1,1,0.3666,1,2,"Flanker"
4,10,1,1,1,0.27321,1,2,"Flanker"
4,11,2,0,1,0.33365,1,2,"Flanker"
4,12,1,0,1,0.28561,1,2,"Flanker"
4,13,1,2,0,0.25554,1,2,"Flanker"
4,14,1,1,1,0.39911,1,2,"Flanker"
4,15,1,1,1,0.36437,1,2,"Flanker"
4,16,1,1,1,0.25544,1,2,"Flanker"
4,17,1,2,1,0.28182,1,2,"Flanker"
4,18,2,0,1,0.35138,1,2,"Flanker"
4,19,2,0,1,0.34766,1,2,"Flanker"
4,20,2,1,1,0.2773,1,2,"Flanker"
4,21,1,0,0,0.24803,1,2,"Flanker"
4,22,2,1,1,0.2481,1,2,"Flanker"
4,23,2,0,1,0.35944,1,2,"Flanker"
4,24,1,2,1,0.41224,1,2,"Flanker"
4,25,2,1,1,0.30197,1,2,"Flanker"
4,26,2,0,1,0.39978,1,2,"Flanker"
4,27,1,1,1,0.404,1,2,"Flanker"
4,28,2,2,1,0.3297,1,2,"Flanker"
4,29,1,1,1,0.38816,1,2,"Flanker"
4,30,1,1,1,0.40661,1,2,"Flanker"
4,31,2,2,1,0.37918,1,2,"Flanker"
4,32,2,2,0,0.37432,1,2,"Flanker"
4,33,2,0,1,0.25757,1,2,"Flanker"
4,34,2,1,1,0.24982,1,2,"Flanker"
4,35,1,2,1,0.4658,1,2,"Flanker"
4,36,2,0,1,0.36135,1,2,"Flanker"
4,37,2,2,1,0.27618,1,2,"Flanker"
4,38,1,2,0,0.30044,1,2,"Flanker"
4,39,2,2,1,0.36629,1,2,"Flanker"
4,40,2,2,0,0.28958,1,2,"Flanker"
4,41,1,2,0,0.35561,1,2,"Flanker"
4,42,1,1,1,0.39772,1,2,"Flanker"
4,43,2,1,1,0.33701,1,2,"Flanker"
4,44,1,0,1,0.40491,1,2,"Flanker"
4,45,1,1,0,0.30605,1,2,"Flanker"
4,46,2,1,1,0.40255,1,2,"Flanker"
4,47,1,2,1,0.66299,1,2,"Flanker"
4,48,1,2,1,0.44258,1,2,"Flanker"
4,49,2,0,1,0.3991,1,2,"Flanker"
4,50,1,0,1,0.35524,1,2,"Flanker"
4,51,2,1,1,0.38126,1,2,"Flanker"
4,52,2,2,0,0.40338,1,2,"Flanker"
4,53,1,0,1,0.42953,1,2,"Flanker"
4,54,1,2,1,0.4821,1,2,"Flanker"
4,55,2,1,1,0.35259,1,2,"Flanker"
4,56,2,1,1,0.30813,1,2,"Flanker"
4,57,2,1,1,0.26169,1,2,"Flanker"
4,58,2,0,1,0.26898,1,2,"Flanker"
4,59,1,1,0,0.26932,1,2,"Flanker"
4,60,2,1,1,0.36054,1,2,"Flanker"
4,61,2,1,1,0.38676,1,2,"Flanker"
4,62,1,1,1,0.38887,1,2,"Flanker"
4,63,2,1,1,0.32242,1,2,"Flanker"
4,64,1,0,1,0.37938,1,2,"Flanker"
4,65,2,1,1,0.36595,1,2,"Flanker"
4,66,1,2,1,0.33737,1,2,"Flanker"
4,67,1,2,1,0.4615,1,2,"Flanker"
4,68,2,2,1,0.33896,1,2,"Flanker"
4,69,1,2,1,0.39713,1,2,"Flanker"
4,70,2,2,1,0.43343,1,2,"Flanker"
4,71,2,0,1,0.30303,1,2,"Flanker"
4,72,2,0,1,0.27274,1,2,"Flanker"
4,73,2,1,1,0.29815,1,2,"Flanker"
4,74,1,2,1,0.41274,1,2,"Flanker"
4,75,2,1,1,0.31188,1,2,"Flanker"
4,76,2,2,1,0.32836,1,2,"Flanker"
4,77,1,2,1,0.41951,1,2,"Flanker"
4,78,1,0,1,0.39056,1,2,"Flanker"
4,79,1,0,1,0.37323,1,2,"Flanker"
4,80,1,1,1,0.32612,1,2,"Flanker"
4,81,1,2,1,0.33969,1,2,"Flanker"
4,82,1,2,1,0.30028,1,2,"Flanker"
4,83,2,2,1,0.45341,1,2,"Flanker"
4,84,1,2,1,0.30661,1,2,"Flanker"
4,85,2,2,1,0.29299,1,2,"Flanker"
4,86,2,1,1,0.37286,1,2,"Flanker"
4,87,2,0,1,0.33663,1,2,"Flanker"
4,88,1,1,1,0.42629,1,2,"Flanker"
4,89,1,1,0,0.31906,1,2,"Flanker"
4,90,2,0,1,0.34085,1,2,"Flanker"
4,91,2,0,1,0.38977,1,2,"Flanker"
4,92,1,0,1,0.32804,1,2,"Flanker"
4,93,1,0,1,0.3696,1,2,"Flanker"
4,94,1,1,1,0.31001,1,2,"Flanker"
4,95,2,1,1,0.40058,1,2,"Flanker"
4,96,2,1,1,0.37284,1,2,"Flanker"
4,97,1,1,1,0.39836,1,2,"Flanker"
4,98,2,2,0,0.38694,1,2,"Flanker"
4,99,2,1,1,0.30299,1,2,"Flanker"
4,100,1,0,1,0.44929,1,2,"Flanker"
4,101,2,0,1,0.33272,1,2,"Flanker"
4,102,2,0,1,0.37682,1,2,"Flanker"
4,103,1,0,1,0.47628,1,2,"Flanker"
4,104,2,1,1,0.34687,1,2,"Flanker"
4,105,2,1,1,0.37271,1,2,"Flanker"
4,106,1,0,1,0.42372,1,2,"Flanker"
4,107,1,0,1,0.35757,1,2,"Flanker"
4,108,2,0,1,0.39134,1,2,"Flanker"
4,109,1,1,1,0.39509,1,2,"Flanker"
4,110,2,0,1,0.32696,1,2,"Flanker"
4,111,2,1,1,0.33807,1,2,"Flanker"
4,112,1,2,0,0.39625,1,2,"Flanker"
4,113,1,0,1,0.46326,1,2,"Flanker"
4,114,2,2,1,0.31847,1,2,"Flanker"
4,115,1,0,1,0.45598,1,2,"Flanker"
4,116,1,1,1,0.38827,1,2,"Flanker"
4,117,1,0,1,0.33791,1,2,"Flanker"
4,118,1,2,1,0.57942,1,2,"Flanker"
4,119,1,2,1,0.35845,1,2,"Flanker"
4,120,1,0,1,0.37484,1,2,"Flanker"
4,121,2,2,1,0.39367,1,2,"Flanker"
4,122,2,0,1,0.32667,1,2,"Flanker"
4,123,2,2,1,0.42543,1,2,"Flanker"
4,124,2,0,1,0.30935,1,2,"Flanker"
4,125,1,2,1,0.42287,1,2,"Flanker"
4,126,2,2,1,0.35475,1,2,"Flanker"
4,127,2,0,1,0.38256,1,2,"Flanker"
4,128,1,2,1,0.32256,1,2,"Flanker"
4,129,1,1,1,0.3636,1,2,"Flanker"
4,130,1,0,1,0.39123,1,2,"Flanker"
4,131,1,2,1,0.29818,1,2,"Flanker"
4,132,1,2,1,0.29105,1,2,"Flanker"
4,133,2,2,0,0.30178,1,2,"Flanker"
4,134,1,0,1,0.40016,1,2,"Flanker"
4,135,2,0,1,0.34673,1,2,"Flanker"
4,136,1,0,1,0.39001,1,2,"Flanker"
4,137,2,0,1,0.28962,1,2,"Flanker"
4,138,2,2,0,0.34667,1,2,"Flanker"
4,139,1,1,1,0.39859,1,2,"Flanker"
4,140,1,1,1,0.37684,1,2,"Flanker"
4,141,2,2,1,0.40611,1,2,"Flanker"
4,142,2,2,1,0.3056,1,2,"Flanker"
4,143,2,2,1,0.38765,1,2,"Flanker"
4,144,1,1,0,0.27152,1,2,"Flanker"
5,1,2,1,1,0.36513,1,2,"Flanker"
5,2,1,1,1,0.37709,1,2,"Flanker"
5,3,2,0,1,0.34951,1,2,"Flanker"
5,4,1,0,1,0.3583,1,2,"Flanker"
5,5,1,2,0,0.36472,1,2,"Flanker"
5,6,2,2,1,0.3747,1,2,"Flanker"
5,7,1,1,1,0.39249,1,2,"Flanker"
5,8,2,0,1,0.33345,1,2,"Flanker"
5,9,2,1,1,0.39093,1,2,"Flanker"
5,10,2,1,1,0.29732,1,2,"Flanker"
5,11,2,0,1,0.30865,1,2,"Flanker"
5,12,2,1,1,0.29379,1,2,"Flanker"
5,13,2,1,1,0.36002,1,2,"Flanker"
5,14,2,0,1,0.29785,1,2,"Flanker"
5,15,1,1,1,0.45142,1,2,"Flanker"
5,16,2,2,1,0.31394,1,2,"Flanker"
5,17,2,1,1,0.39489,1,2,"Flanker"
5,18,1,0,1,0.40641,1,2,"Flanker"
5,19,2,1,1,0.30796,1,2,"Flanker"
5,20,2,1,1,0.29185,1,2,"Flanker"
5,21,2,2,1,0.32618,1,2,"Flanker"
5,22,2,1,1,0.32894,1,2,"Flanker"
5,23,1,0,1,0.41312,1,2,"Flanker"
5,24,1,1,1,0.35066,1,2,"Flanker"
5,25,2,0,1,0.38638,1,2,"Flanker"
5,26,2,2,1,0.40825,1,2,"Flanker"
5,27,2,0,1,0.32222,1,2,"Flanker"
5,28,1,1,1,0.38052,1,2,"Flanker"
5,29,2,2,1,0.38554,1,2,"Flanker"
5,30,1,1,1,0.39601,1,2,"Flanker"
5,31,2,2,1,0.38318,1,2,"Flanker"
5,32,1,2,1,0.38763,1,2,"Flanker"
5,33,2,2,1,0.33435,1,2,"Flanker"
5,34,2,1,1,0.33789,1,2,"Flanker"
5,35,2,2,1,0.50816,1,2,"Flanker"
5,36,2,2,1,0.28302,1,2,"Flanker"
5,37,1,0,0,0.35692,1,2,"Flanker"
5,38,1,2,0,0.29548,1,2,"Flanker"
5,39,1,0,1,0.47147,1,2,"Flanker"
5,40,2,0,1,0.35118,1,2,"Flanker"
5,41,2,1,1,0.27374,1,2,"Flanker"
5,42,1,1,1,0.52161,1,2,"Flanker"
5,43,2,2,1,0.38605,1,2,"Flanker"
5,44,1,0,1,0.41457,1,2,"Flanker"
5,45,2,0,1,0.29172,1,2,"Flanker"
5,46,2,1,1,0.29102,1,2,"Flanker"
5,47,2,1,1,0.26771,1,2,"Flanker"
5,48,2,1,1,0.30145,1,2,"Flanker"
5,49,1,2,0,0.35125,1,2,"Flanker"
5,50,1,0,1,0.39608,1,2,"Flanker"
5,51,2,2,1,0.48532,1,2,"Flanker"
5,52,1,1,1,0.30794,1,2,"Flanker"
5,53,1,0,1,0.4056,1,2,"Flanker"
5,54,2,2,1,0.34042,1,2,"Flanker"
5,55,2,1,0,0.2995,1,2,"Flanker"
5,56,1,2,1,0.38997,1,2,"Flanker"
5,57,1,1,1,0.41698,1,2,"Flanker"
5,58,1,1,1,0.38189,1,2,"Flanker"
5,59,1,2,1,0.34538,1,2,"Flanker"
5,60,2,2,0,0.34695,1,2,"Flanker"
5,61,1,2,1,0.42381,1,2,"Flanker"
5,62,1,2,1,0.42671,1,2,"Flanker"
5,63,2,1,1,0.39271,1,2,"Flanker"
5,64,1,1,1,0.37842,1,2,"Flanker"
5,65,2,0,1,0.36745,1,2,"Flanker"
5,66,1,2,1,0.26916,1,2,"Flanker"
5,67,1,2,1,0.43687,1,2,"Flanker"
5,68,2,1,1,0.25588,1,2,"Flanker"
5,69,1,0,1,0.19193,1,2,"Flanker"
5,70,2,2,1,0.24946,1,2,"Flanker"
5,71,1,0,1,0.23208,1,2,"Flanker"
5,72,1,2,1,0.39138,1,2,"Flanker"
5,73,2,0,1,0.37204,1,2,"Flanker"
5,74,1,0,1,0.30352,1,2,"Flanker"
5,75,1,2,1,0.4402,1,2,"Flanker"
5,76,2,1,0,0.35237,1,2,"Flanker"
5,77,1,2,1,0.37631,1,2,"Flanker"
5,78,2,1,1,0.30867,1,2,"Flanker"
5,79,2,0,1,0.34949,1,2,"Flanker"
5,80,1,1,1,0.4417,1,2,"Flanker"
5,81,1,1,1,0.38958,1,2,"Flanker"
5,82,2,0,1,0.38562,1,2,"Flanker"
5,83,2,2,1,0.65335,1,2,"Flanker"
5,84,1,0,1,0.38322,1,2,"Flanker"
5,85,1,1,1,0.22079,1,2,"Flanker"
5,86,1,1,1,0.27438,1,2,"Flanker"
5,87,2,2,0,0.26912,1,2,"Flanker"
5,88,2,0,1,0.37438,1,2,"Flanker"
5,89,1,1,0,0.26478,1,2,"Flanker"
5,90,2,0,1,0.35322,1,2,"Flanker"
5,91,2,2,1,0.25097,1,2,"Flanker"
5,92,1,0,0,0.24482,1,2,"Flanker"
5,93,2,2,1,0.26871,1,2,"Flanker"
5,94,2,0,1,0.37289,1,2,"Flanker"
5,95,2,1,0,0.29683,1,2,"Flanker"
5,96,2,1,1,0.48922,1,2,"Flanker"
5,97,1,0,0,0.31353,1,2,"Flanker"
5,98,2,2,1,0.32294,1,2,"Flanker"
5,99,1,1,1,0.28519,1,2,"Flanker"
5,100,2,0,1,0.28711,1,2,"Flanker"
5,101,1,2,1,0.27104,1,2,"Flanker"
5,102,2,0,1,0.28925,1,2,"Flanker"
5,103,2,0,1,0.44168,1,2,"Flanker"
5,104,1,0,1,0.34201,1,2,"Flanker"
5,105,1,2,0,0.28999,1,2,"Flanker"
5,106,1,1,0,0.26718,1,2,"Flanker"
5,107,1,2,1,0.41192,1,2,"Flanker"
5,108,2,1,1,0.37691,1,2,"Flanker"
5,109,1,1,1,0.41039,1,2,"Flanker"
5,110,2,0,1,0.52051,1,2,"Flanker"
5,111,1,2,0,0.35142,1,2,"Flanker"
5,112,1,2,1,0.45732,1,2,"Flanker"
5,113,2,1,1,0.38609,1,2,"Flanker"
5,114,1,0,1,0.379,1,2,"Flanker"
5,115,2,0,1,0.34252,1,2,"Flanker"
5,116,2,0,1,0.3855,1,2,"Flanker"
5,117,1,2,0,0.30095,1,2,"Flanker"
5,118,1,1,1,0.39775,1,2,"Flanker"
5,119,2,0,1,0.25017,1,2,"Flanker"
5,120,1,2,1,0.37906,1,2,"Flanker"
5,121,1,2,1,0.422,1,2,"Flanker"
5,122,1,1,1,0.41764,1,2,"Flanker"
5,123,1,0,1,0.29475,1,2,"Flanker"
5,124,1,0,1,0.28753,1,2,"Flanker"
5,125,1,2,1,0.27396,1,2,"Flanker"
5,126,1,1,1,0.27593,1,2,"Flanker"
5,127,1,0,1,0.26859,1,2,"Flanker"
5,128,1,2,1,0.29363,1,2,"Flanker"
5,129,1,0,1,0.29367,1,2,"Flanker"
5,130,2,2,0,0.23862,1,2,"Flanker"
5,131,1,1,1,0.353,1,2,"Flanker"
5,132,2,2,1,0.33,1,2,"Flanker"
5,133,2,2,1,0.42159,1,2,"Flanker"
5,134,2,2,1,0.41847,1,2,"Flanker"
5,135,2,2,1,0.26928,1,2,"Flanker"
5,136,1,0,0,0.26299,1,2,"Flanker"
5,137,2,0,1,0.30352,1,2,"Flanker"
5,138,2,0,1,0.31304,1,2,"Flanker"
5,139,2,1,1,0.3795,1,2,"Flanker"
5,140,1,1,1,0.37401,1,2,"Flanker"
5,141,1,2,0,0.24875,1,2,"Flanker"
5,142,1,0,1,0.38649,1,2,"Flanker"
5,143,1,0,1,0.37605,1,2,"Flanker"
5,144,1,0,1,0.26711,1,2,"Flanker"
1,1,2,2,1,1.4157,2,1,"Flanker"
1,2,1,1,1,0.68493,2,1,"Flanker"
1,3,2,0,1,0.66333,2,1,"Flanker"
1,4,1,2,1,0.49813,2,1,"Flanker"
1,5,1,0,1,0.55928,2,1,"Flanker"
1,6,1,0,1,0.44864,2,1,"Flanker"
1,7,1,0,1,0.4852,2,1,"Flanker"
1,8,2,0,1,0.61825,2,1,"Flanker"
1,9,2,1,1,0.65971,2,1,"Flanker"
1,10,2,0,1,0.46486,2,1,"Flanker"
1,11,2,1,1,0.43627,2,1,"Flanker"
1,12,1,1,1,0.50493,2,1,"Flanker"
1,13,2,0,1,0.57811,2,1,"Flanker"
1,14,1,1,1,0.46623,2,1,"Flanker"
1,15,1,2,1,0.52468,2,1,"Flanker"
1,16,2,1,1,0.60547,2,1,"Flanker"
1,17,1,0,1,0.57641,2,1,"Flanker"
1,18,2,0,1,0.53507,2,1,"Flanker"
1,19,2,2,1,0.62939,2,1,"Flanker"
1,20,2,2,1,0.56185,2,1,"Flanker"
1,21,1,1,1,0.62161,2,1,"Flanker"
1,22,1,2,1,0.52864,2,1,"Flanker"
1,23,1,2,1,0.51964,2,1,"Flanker"
1,24,2,2,1,0.5186,2,1,"Flanker"
1,25,1,0,1,0.485,2,1,"Flanker"
1,26,2,0,1,0.47475,2,1,"Flanker"
1,27,2,2,1,0.52097,2,1,"Flanker"
1,28,1,0,1,0.43314,2,1,"Flanker"
1,29,1,2,1,0.50798,2,1,"Flanker"
1,30,2,1,1,0.4578,2,1,"Flanker"
1,31,2,2,1,0.52874,2,1,"Flanker"
1,32,2,0,1,0.45563,2,1,"Flanker"
1,33,1,1,1,0.43566,2,1,"Flanker"
1,34,1,2,1,0.44071,2,1,"Flanker"
1,35,1,1,1,0.43077,2,1,"Flanker"
1,36,1,1,1,0.37968,2,1,"Flanker"
1,37,1,1,1,0.35138,2,1,"Flanker"
1,38,2,1,1,0.43618,2,1,"Flanker"
1,39,2,1,1,0.42311,2,1,"Flanker"
1,40,1,0,1,0.40325,2,1,"Flanker"
1,41,1,1,1,0.39958,2,1,"Flanker"
1,42,2,1,1,0.39522,2,1,"Flanker"
1,43,2,0,1,0.40638,2,1,"Flanker"
1,44,2,2,1,0.49996,2,1,"Flanker"
1,45,2,0,1,0.35273,2,1,"Flanker"
1,46,2,0,1,0.37297,2,1,"Flanker"
1,47,2,0,1,0.44227,2,1,"Flanker"
1,48,1,0,1,0.40557,2,1,"Flanker"
1,49,1,0,1,0.42433,2,1,"Flanker"
1,50,2,2,1,0.42966,2,1,"Flanker"
1,51,1,2,1,0.45831,2,1,"Flanker"
1,52,2,0,1,0.38409,2,1,"Flanker"
1,53,2,2,1,0.50077,2,1,"Flanker"
1,54,2,0,1,0.36161,2,1,"Flanker"
1,55,2,0,1,0.39686,2,1,"Flanker"
1,56,2,1,1,0.38606,2,1,"Flanker"
1,57,1,0,1,0.51108,2,1,"Flanker"
1,58,1,2,0,0.43018,2,1,"Flanker"
1,59,1,0,1,0.40082,2,1,"Flanker"
1,60,2,1,1,0.7166,2,1,"Flanker"
1,61,1,1,1,0.54337,2,1,"Flanker"
1,62,1,2,1,0.58401,2,1,"Flanker"
1,63,2,2,1,0.53594,2,1,"Flanker"
1,64,1,2,1,0.48824,2,1,"Flanker"
1,65,2,0,1,0.53383,2,1,"Flanker"
1,66,1,2,1,0.46069,2,1,"Flanker"
1,67,2,0,1,0.57011,2,1,"Flanker"
1,68,1,1,1,0.53749,2,1,"Flanker"
1,69,2,1,1,0.62849,2,1,"Flanker"
1,70,1,1,1,0.46907,2,1,"Flanker"
1,71,1,1,1,0.4812,2,1,"Flanker"
1,72,2,2,1,0.66153,2,1,"Flanker"
1,73,2,2,1,0.56981,2,1,"Flanker"
1,74,1,2,1,0.49776,2,1,"Flanker"
1,75,1,2,1,0.54264,2,1,"Flanker"
1,76,2,2,1,0.51127,2,1,"Flanker"
1,77,1,1,1,0.54137,2,1,"Flanker"
1,78,2,2,1,0.51717,2,1,"Flanker"
1,79,1,0,1,0.50785,2,1,"Flanker"
1,80,1,1,1,0.4824,2,1,"Flanker"
1,81,1,0,1,0.44971,2,1,"Flanker"
1,82,2,1,1,0.51254,2,1,"Flanker"
1,83,1,2,1,0.49235,2,1,"Flanker"
1,84,2,2,1,0.48995,2,1,"Flanker"
1,85,1,2,1,0.46705,2,1,"Flanker"
1,86,2,1,1,0.48104,2,1,"Flanker"
1,87,2,1,1,0.43652,2,1,"Flanker"
1,88,2,0,1,0.39361,2,1,"Flanker"
1,89,1,0,1,0.46096,2,1,"Flanker"
1,90,1,1,1,0.42024,2,1,"Flanker"
1,91,2,1,1,0.46364,2,1,"Flanker"
1,92,2,2,1,0.48478,2,1,"Flanker"
1,93,1,2,1,0.48327,2,1,"Flanker"
1,94,1,1,1,0.41674,2,1,"Flanker"
1,95,1,2,1,0.5504,2,1,"Flanker"
1,96,1,2,1,0.46374,2,1,"Flanker"
1,97,2,1,1,0.46157,2,1,"Flanker"
1,98,2,1,1,0.39401,2,1,"Flanker"
1,99,1,0,1,0.46941,2,1,"Flanker"
1,100,2,0,1,0.47313,2,1,"Flanker"
1,101,1,1,1,0.4066,2,1,"Flanker"
1,102,2,1,1,0.46625,2,1,"Flanker"
1,103,1,2,1,0.39284,2,1,"Flanker"
1,104,2,2,1,0.43624,2,1,"Flanker"
1,105,2,0,1,0.49696,2,1,"Flanker"
1,106,1,1,1,0.4555,2,1,"Flanker"
1,107,1,0,1,0.40501,2,1,"Flanker"
1,108,1,0,1,0.44919,2,1,"Flanker"
1,109,1,2,1,0.51097,2,1,"Flanker"
1,110,2,2,1,0.42878,2,1,"Flanker"
1,111,1,2,1,0.42013,2,1,"Flanker"
1,112,2,0,1,0.40075,2,1,"Flanker"
1,113,1,1,1,0.4171,2,1,"Flanker"
1,114,1,2,1,0.51806,2,1,"Flanker"
1,115,2,2,1,0.49233,2,1,"Flanker"
1,116,2,2,1,0.42056,2,1,"Flanker"
1,117,1,0,1,0.39162,2,1,"Flanker"
1,118,2,0,1,0.45215,2,1,"Flanker"
1,119,1,0,1,0.3777,2,1,"Flanker"
1,120,2,2,1,0.44515,2,1,"Flanker"
1,121,1,2,1,0.39437,2,1,"Flanker"
1,122,1,1,1,0.52809,2,1,"Flanker"
1,123,1,2,1,0.53329,2,1,"Flanker"
1,124,2,1,1,0.42689,2,1,"Flanker"
1,125,1,0,1,0.44937,2,1,"Flanker"
1,126,1,1,1,0.38132,2,1,"Flanker"
1,127,2,0,1,0.44181,2,1,"Flanker"
1,128,2,1,1,0.39104,2,1,"Flanker"
1,129,2,0,1,0.36133,2,1,"Flanker"
1,130,1,0,1,0.444,2,1,"Flanker"
1,131,1,0,1,0.33062,2,1,"Flanker"
1,132,2,0,1,0.42854,2,1,"Flanker"
1,133,1,1,1,0.4565,2,1,"Flanker"
1,134,2,1,1,0.36861,2,1,"Flanker"
1,135,2,2,1,0.48152,2,1,"Flanker"
1,136,2,1,1,0.35975,2,1,"Flanker"
1,137,1,0,1,0.43462,2,1,"Flanker"
1,138,2,2,1,0.50354,2,1,"Flanker"
1,139,2,1,1,0.4001,2,1,"Flanker"
1,140,2,2,1,0.395,2,1,"Flanker"
1,141,1,1,1,0.43713,2,1,"Flanker"
1,142,2,1,1,0.48996,2,1,"Flanker"
1,143,1,0,1,0.42632,2,1,"Flanker"
1,144,2,1,1,0.50291,2,1,"Flanker"
2,1,1,2,1,0.83094,2,1,"Flanker"
2,2,1,0,1,0.38794,2,1,"Flanker"
2,3,1,2,1,0.35727,2,1,"Flanker"
2,4,2,2,1,0.482,2,1,"Flanker"
2,5,1,1,1,0.36625,2,1,"Flanker"
2,6,2,1,1,0.43411,2,1,"Flanker"
2,7,2,0,1,0.42251,2,1,"Flanker"
2,8,1,1,1,0.41264,2,1,"Flanker"
2,9,1,2,1,0.49659,2,1,"Flanker"
2,10,1,1,1,0.40693,2,1,"Flanker"
2,11,2,0,1,0.46723,2,1,"Flanker"
2,12,2,2,1,0.57813,2,1,"Flanker"
2,13,1,2,1,0.42437,2,1,"Flanker"
2,14,2,1,1,0.42212,2,1,"Flanker"
2,15,1,2,1,0.37733,2,1,"Flanker"
2,16,2,2,1,0.39615,2,1,"Flanker"
2,17,1,1,1,0.36277,2,1,"Flanker"
2,18,1,0,1,0.51641,2,1,"Flanker"
2,19,2,2,1,0.41771,2,1,"Flanker"
2,20,1,0,1,0.3837,2,1,"Flanker"
2,21,2,0,1,0.36301,2,1,"Flanker"
2,22,1,1,1,0.35167,2,1,"Flanker"
2,23,1,1,1,0.40129,2,1,"Flanker"
2,24,1,2,1,0.51658,2,1,"Flanker"
2,25,1,2,1,0.52407,2,1,"Flanker"
2,26,2,2,1,0.3947,2,1,"Flanker"
2,27,2,0,1,0.43001,2,1,"Flanker"
2,28,1,1,1,0.41887,2,1,"Flanker"
2,29,1,2,1,0.49644,2,1,"Flanker"
2,30,2,1,1,0.42302,2,1,"Flanker"
2,31,1,1,1,0.40946,2,1,"Flanker"
2,32,2,2,1,0.43139,2,1,"Flanker"
2,33,2,1,1,0.46028,2,1,"Flanker"
2,34,1,2,1,0.43408,2,1,"Flanker"
2,35,1,1,1,0.36714,2,1,"Flanker"
2,36,1,2,1,0.50556,2,1,"Flanker"
2,37,2,1,1,0.42285,2,1,"Flanker"
2,38,2,1,1,0.51737,2,1,"Flanker"
2,39,1,2,1,0.38026,2,1,"Flanker"
2,40,2,0,1,0.39118,2,1,"Flanker"
2,41,2,0,1,0.44201,2,1,"Flanker"
2,42,1,1,1,0.41397,2,1,"Flanker"
2,43,1,2,1,0.50018,2,1,"Flanker"
2,44,1,1,1,0.3532,2,1,"Flanker"
2,45,2,2,1,0.41219,2,1,"Flanker"
2,46,2,1,1,0.42461,2,1,"Flanker"
2,47,1,0,1,0.36633,2,1,"Flanker"
2,48,1,1,1,0.33753,2,1,"Flanker"
2,49,2,0,1,0.40331,2,1,"Flanker"
2,50,2,2,1,0.59152,2,1,"Flanker"
2,51,2,2,1,0.48945,2,1,"Flanker"
2,52,1,0,1,0.48734,2,1,"Flanker"
2,53,2,0,1,0.42898,2,1,"Flanker"
2,54,2,0,1,0.4018,2,1,"Flanker"
2,55,1,2,1,0.5325,2,1,"Flanker"
2,56,2,1,1,0.4689,2,1,"Flanker"
2,57,2,1,1,0.48254,2,1,"Flanker"
2,58,2,1,1,0.46338,2,1,"Flanker"
2,59,1,2,1,0.46926,2,1,"Flanker"
2,60,1,2,1,0.45871,2,1,"Flanker"
2,61,1,2,1,0.49738,2,1,"Flanker"
2,62,2,1,1,0.43035,2,1,"Flanker"
2,63,1,1,1,0.39732,2,1,"Flanker"
2,64,1,1,1,0.41589,2,1,"Flanker"
2,65,2,1,1,0.49272,2,1,"Flanker"
2,66,2,1,1,0.44371,2,1,"Flanker"
2,67,1,0,1,0.44054,2,1,"Flanker"
2,68,2,2,1,0.43692,2,1,"Flanker"
2,69,2,1,1,0.44106,2,1,"Flanker"
2,70,2,2,1,0.46317,2,1,"Flanker"
2,71,2,0,1,0.36483,2,1,"Flanker"
2,72,2,0,1,0.39266,2,1,"Flanker"
2,73,2,1,1,0.37886,2,1,"Flanker"
2,74,1,0,1,0.4226,2,1,"Flanker"
2,75,1,0,1,0.33185,2,1,"Flanker"
2,76,2,2,1,0.45422,2,1,"Flanker"
2,77,2,2,1,0.53131,2,1,"Flanker"
2,78,1,1,1,0.40999,2,1,"Flanker"
2,79,1,0,1,0.34183,2,1,"Flanker"
2,80,1,1,1,0.34553,2,1,"Flanker"
2,81,2,0,1,0.45022,2,1,"Flanker"
2,82,1,0,1,0.33668,2,1,"Flanker"
2,83,2,2,1,0.47489,2,1,"Flanker"
2,84,1,0,1,0.39363,2,1,"Flanker"
2,85,2,2,0,0.42908,2,1,"Flanker"
2,86,2,1,1,0.49789,2,1,"Flanker"
2,87,2,1,1,0.41648,2,1,"Flanker"
2,88,1,1,1,0.40558,2,1,"Flanker"
2,89,1,0,1,0.38557,2,1,"Flanker"
2,90,2,0,1,0.44497,2,1,"Flanker"
2,91,1,2,1,0.36252,2,1,"Flanker"
2,92,1,0,1,0.39796,2,1,"Flanker"
2,93,2,2,1,0.43323,2,1,"Flanker"
2,94,2,2,1,0.50471,2,1,"Flanker"
2,95,1,2,1,0.50834,2,1,"Flanker"
2,96,2,1,1,0.41148,2,1,"Flanker"
2,97,2,2,1,0.50441,2,1,"Flanker"
2,98,2,0,1,0.41332,2,1,"Flanker"
2,99,1,1,1,0.45064,2,1,"Flanker"
2,100,1,0,1,0.43237,2,1,"Flanker"
2,101,1,0,1,0.38021,2,1,"Flanker"
2,102,2,0,1,0.52065,2,1,"Flanker"
2,103,2,2,1,0.4731,2,1,"Flanker"
2,104,2,1,1,0.41343,2,1,"Flanker"
2,105,2,2,0,0.40817,2,1,"Flanker"
2,106,1,0,1,0.42059,2,1,"Flanker"
2,107,1,1,1,0.44084,2,1,"Flanker"
2,108,1,0,1,0.50347,2,1,"Flanker"
2,109,2,0,1,0.58914,2,1,"Flanker"
2,110,2,2,1,0.49353,2,1,"Flanker"
2,111,1,1,1,0.47761,2,1,"Flanker"
2,112,2,1,1,0.45781,2,1,"Flanker"
2,113,2,2,1,0.45606,2,1,"Flanker"
2,114,2,0,1,0.4599,2,1,"Flanker"
2,115,2,0,1,0.44244,2,1,"Flanker"
2,116,1,2,0,0.39857,2,1,"Flanker"
2,117,1,0,1,0.54062,2,1,"Flanker"
2,118,1,2,1,0.58609,2,1,"Flanker"
2,119,1,0,1,0.45102,2,1,"Flanker"
2,120,2,0,1,0.49631,2,1,"Flanker"
2,121,2,0,1,0.51907,2,1,"Flanker"
2,122,1,0,1,0.57693,2,1,"Flanker"
2,123,1,2,1,0.53452,2,1,"Flanker"
2,124,1,1,1,0.49294,2,1,"Flanker"
2,125,2,0,1,0.47595,2,1,"Flanker"
2,126,2,1,1,0.46559,2,1,"Flanker"
2,127,1,0,1,0.43959,2,1,"Flanker"
2,128,1,0,1,0.39735,2,1,"Flanker"
2,129,2,2,1,0.44136,2,1,"Flanker"
2,130,1,2,1,0.43815,2,1,"Flanker"
2,131,2,0,1,0.44301,2,1,"Flanker"
2,132,2,2,1,0.53447,2,1,"Flanker"
2,133,1,2,1,0.41686,2,1,"Flanker"
2,134,1,2,1,0.52246,2,1,"Flanker"
2,135,2,1,1,0.43349,2,1,"Flanker"
2,136,1,1,1,0.48575,2,1,"Flanker"
2,137,1,0,1,0.43704,2,1,"Flanker"
2,138,1,0,1,0.51305,2,1,"Flanker"
2,139,1,1,1,0.40968,2,1,"Flanker"
2,140,2,0,1,0.50868,2,1,"Flanker"
2,141,1,1,1,0.43448,2,1,"Flanker"
2,142,2,1,1,0.41479,2,1,"Flanker"
2,143,2,1,1,0.43559,2,1,"Flanker"
2,144,2,0,1,0.40186,2,1,"Flanker"
3,1,2,2,1,0.54706,2,1,"Flanker"
3,2,1,2,1,0.40377,2,1,"Flanker"
3,3,2,1,1,0.44135,2,1,"Flanker"
3,4,1,0,1,0.43841,2,1,"Flanker"
3,5,1,0,1,0.45129,2,1,"Flanker"
3,6,2,0,1,0.43106,2,1,"Flanker"
3,7,1,2,1,0.54006,2,1,"Flanker"
3,8,1,1,1,0.43404,2,1,"Flanker"
3,9,1,1,1,0.36132,2,1,"Flanker"
3,10,2,2,1,0.45372,2,1,"Flanker"
3,11,1,2,1,0.52859,2,1,"Flanker"
3,12,1,1,1,0.41539,2,1,"Flanker"
3,13,2,2,1,0.41873,2,1,"Flanker"
3,14,1,2,1,0.32834,2,1,"Flanker"
3,15,2,2,1,0.45009,2,1,"Flanker"
3,16,1,1,1,0.39908,2,1,"Flanker"
3,17,1,0,1,0.44274,2,1,"Flanker"
3,18,2,0,1,0.48045,2,1,"Flanker"
3,19,2,2,1,0.71789,2,1,"Flanker"
3,20,2,2,1,0.48356,2,1,"Flanker"
3,21,1,2,1,0.44787,2,1,"Flanker"
3,22,1,1,1,0.46227,2,1,"Flanker"
3,23,1,0,1,0.5391,2,1,"Flanker"
3,24,2,1,1,0.44949,2,1,"Flanker"
3,25,1,2,1,0.49509,2,1,"Flanker"
3,26,2,2,1,0.41498,2,1,"Flanker"
3,27,2,2,1,0.40993,2,1,"Flanker"
3,28,2,2,1,0.43815,2,1,"Flanker"
3,29,2,1,1,0.45907,2,1,"Flanker"
3,30,1,1,1,0.43479,2,1,"Flanker"
3,31,1,2,1,0.46249,2,1,"Flanker"
3,32,2,1,1,0.42695,2,1,"Flanker"
3,33,2,1,1,0.46603,2,1,"Flanker"
3,34,2,1,1,0.43058,2,1,"Flanker"
3,35,1,2,1,0.45928,2,1,"Flanker"
3,36,1,2,1,0.51242,2,1,"Flanker"
3,37,2,1,1,0.43816,2,1,"Flanker"
3,38,1,2,1,0.49926,2,1,"Flanker"
3,39,2,0,1,0.4337,2,1,"Flanker"
3,40,1,0,1,0.3424,2,1,"Flanker"
3,41,2,0,1,0.47644,2,1,"Flanker"
3,42,2,0,1,0.45784,2,1,"Flanker"
3,43,1,0,1,0.46084,2,1,"Flanker"
3,44,1,2,1,0.33876,2,1,"Flanker"
3,45,1,2,1,0.38881,2,1,"Flanker"
3,46,2,1,1,0.48888,2,1,"Flanker"
3,47,2,0,1,0.41609,2,1,"Flanker"
3,48,2,2,1,0.56646,2,1,"Flanker"
3,49,2,1,1,0.44227,2,1,"Flanker"
3,50,2,2,1,0.56717,2,1,"Flanker"
3,51,1,1,1,0.45648,2,1,"Flanker"
3,52,1,2,1,0.49323,2,1,"Flanker"
3,53,2,2,1,0.45445,2,1,"Flanker"
3,54,2,1,1,0.41978,2,1,"Flanker"
3,55,2,2,1,0.49317,2,1,"Flanker"
3,56,2,0,1,0.46077,2,1,"Flanker"
3,57,1,2,1,0.44132,2,1,"Flanker"
3,58,1,0,1,0.38268,2,1,"Flanker"
3,59,1,0,1,0.41847,2,1,"Flanker"
3,60,1,1,1,0.35935,2,1,"Flanker"
3,61,2,0,1,0.43439,2,1,"Flanker"
3,62,2,1,1,0.39053,2,1,"Flanker"
3,63,2,1,1,0.38701,2,1,"Flanker"
3,64,2,0,1,0.45289,2,1,"Flanker"
3,65,2,1,1,0.40557,2,1,"Flanker"
3,66,2,0,1,0.36757,2,1,"Flanker"
3,67,1,0,1,0.41065,2,1,"Flanker"
3,68,1,0,1,0.34244,2,1,"Flanker"
3,69,2,1,1,0.45643,2,1,"Flanker"
3,70,2,2,1,0.44689,2,1,"Flanker"
3,71,1,1,1,0.41911,2,1,"Flanker"
3,72,1,1,1,0.40265,2,1,"Flanker"
3,73,2,1,1,0.46356,2,1,"Flanker"
3,74,2,0,1,0.4258,2,1,"Flanker"
3,75,1,2,1,0.46283,2,1,"Flanker"
3,76,2,0,1,0.42308,2,1,"Flanker"
3,77,2,1,1,0.4096,2,1,"Flanker"
3,78,2,2,1,0.44684,2,1,"Flanker"
3,79,2,1,1,0.38753,2,1,"Flanker"
3,80,1,0,1,0.59031,2,1,"Flanker"
3,81,2,0,1,0.68782,2,1,"Flanker"
3,82,1,2,1,0.44921,2,1,"Flanker"
3,83,2,1,1,0.44748,2,1,"Flanker"
3,84,2,0,1,0.41956,2,1,"Flanker"
3,85,2,2,1,0.52046,2,1,"Flanker"
3,86,1,1,1,0.48644,2,1,"Flanker"
3,87,1,2,1,0.38952,2,1,"Flanker"
3,88,2,0,1,0.44963,2,1,"Flanker"
3,89,2,1,1,0.40933,2,1,"Flanker"
3,90,1,1,1,0.45836,2,1,"Flanker"
3,91,1,0,1,0.39313,2,1,"Flanker"
3,92,1,1,1,0.36296,2,1,"Flanker"
3,93,2,0,1,0.39023,2,1,"Flanker"
3,94,2,1,1,0.4017,2,1,"Flanker"
3,95,2,2,1,0.47937,2,1,"Flanker"
3,96,1,0,1,0.46873,2,1,"Flanker"
3,97,2,1,1,0.41714,2,1,"Flanker"
3,98,1,1,1,0.42988,2,1,"Flanker"
3,99,1,1,1,0.44264,2,1,"Flanker"
3,100,2,2,1,0.42484,2,1,"Flanker"
3,101,1,1,1,0.35976,2,1,"Flanker"
3,102,1,0,1,0.44058,2,1,"Flanker"
3,103,1,2,1,0.35721,2,1,"Flanker"
3,104,2,0,0,0.43295,2,1,"Flanker"
3,105,1,0,1,0.41371,2,1,"Flanker"
3,106,2,2,1,0.45815,2,1,"Flanker"
3,107,2,2,1,0.50292,2,1,"Flanker"
3,108,2,0,1,0.39669,2,1,"Flanker"
3,109,1,0,1,0.50574,2,1,"Flanker"
3,110,1,1,1,0.46311,2,1,"Flanker"
3,111,1,1,1,0.41374,2,1,"Flanker"
3,112,2,0,1,0.43415,2,1,"Flanker"
3,113,1,0,1,0.38388,2,1,"Flanker"
3,114,2,0,1,0.39515,2,1,"Flanker"
3,115,1,1,1,0.35116,2,1,"Flanker"
3,116,1,2,1,0.50533,2,1,"Flanker"
3,117,1,0,1,0.41677,2,1,"Flanker"
3,118,1,0,1,0.37198,2,1,"Flanker"
3,119,2,0,1,0.44733,2,1,"Flanker"
3,120,2,2,1,0.41393,2,1,"Flanker"
3,121,2,0,1,0.39213,2,1,"Flanker"
3,122,1,0,1,0.51892,2,1,"Flanker"
3,123,1,2,1,0.56258,2,1,"Flanker"
3,124,1,1,1,0.39559,2,1,"Flanker"
3,125,1,1,1,0.33567,2,1,"Flanker"
3,126,1,0,1,0.40165,2,1,"Flanker"
3,127,1,2,1,0.55771,2,1,"Flanker"
3,128,2,1,1,0.43968,2,1,"Flanker"
3,129,1,1,1,0.4268,2,1,"Flanker"
3,130,2,2,1,0.5042,2,1,"Flanker"
3,131,2,0,1,0.46153,2,1,"Flanker"
3,132,2,1,0,0.54049,2,1,"Flanker"
3,133,1,0,1,0.40312,2,1,"Flanker"
3,134,1,1,1,0.39046,2,1,"Flanker"
3,135,1,0,1,0.42643,2,1,"Flanker"
3,136,1,2,1,0.53795,2,1,"Flanker"
3,137,2,1,1,0.47004,2,1,"Flanker"
3,138,1,2,1,0.50815,2,1,"Flanker"
3,139,2,2,1,0.49814,2,1,"Flanker"
3,140,1,2,1,0.51319,2,1,"Flanker"
3,141,1,0,1,0.47195,2,1,"Flanker"
3,142,1,1,1,0.53309,2,1,"Flanker"
3,143,2,0,1,0.44444,2,1,"Flanker"
3,144,2,2,1,0.60957,2,1,"Flanker"
4,1,1,2,1,0.56165,2,1,"Flanker"
4,2,2,1,1,0.43781,2,1,"Flanker"
4,3,1,2,1,0.43662,2,1,"Flanker"
4,4,2,2,1,0.47272,2,1,"Flanker"
4,5,2,0,1,0.47913,2,1,"Flanker"
4,6,2,1,1,0.43739,2,1,"Flanker"
4,7,2,2,1,0.52295,2,1,"Flanker"
4,8,1,0,1,0.42487,2,1,"Flanker"
4,9,2,0,1,0.4612,2,1,"Flanker"
4,10,1,2,1,0.38736,2,1,"Flanker"
4,11,1,0,1,0.46302,2,1,"Flanker"
4,12,2,2,1,0.50079,2,1,"Flanker"
4,13,2,2,1,0.46512,2,1,"Flanker"
4,14,2,2,1,0.48848,2,1,"Flanker"
4,15,2,2,1,0.3823,2,1,"Flanker"
4,16,1,1,1,0.49009,2,1,"Flanker"
4,17,1,1,1,0.46446,2,1,"Flanker"
4,18,1,1,1,0.38054,2,1,"Flanker"
4,19,2,0,1,0.46493,2,1,"Flanker"
4,20,1,1,0,0.37758,2,1,"Flanker"
4,21,1,0,1,0.4028,2,1,"Flanker"
4,22,2,1,1,0.45297,2,1,"Flanker"
4,23,1,1,1,0.38635,2,1,"Flanker"
4,24,2,2,1,0.48864,2,1,"Flanker"
4,25,1,0,1,0.35817,2,1,"Flanker"
4,26,2,0,1,0.39893,2,1,"Flanker"
4,27,2,2,1,0.49331,2,1,"Flanker"
4,28,1,2,1,0.47452,2,1,"Flanker"
4,29,1,1,1,0.47545,2,1,"Flanker"
4,30,1,1,1,0.44023,2,1,"Flanker"
4,31,2,1,1,0.51477,2,1,"Flanker"
4,32,2,2,1,0.57753,2,1,"Flanker"
4,33,2,1,1,0.41891,2,1,"Flanker"
4,34,1,1,1,0.46208,2,1,"Flanker"
4,35,1,0,1,0.34914,2,1,"Flanker"
4,36,2,2,1,0.43836,2,1,"Flanker"
4,37,1,0,1,0.42794,2,1,"Flanker"
4,38,2,0,1,0.44064,2,1,"Flanker"
4,39,1,1,1,0.41362,2,1,"Flanker"
4,40,1,1,1,0.44184,2,1,"Flanker"
4,41,2,0,1,0.46518,2,1,"Flanker"
4,42,2,2,1,0.58812,2,1,"Flanker"
4,43,1,0,1,0.42927,2,1,"Flanker"
4,44,1,2,1,0.53169,2,1,"Flanker"
4,45,2,0,1,0.5299,2,1,"Flanker"
4,46,1,1,1,0.48859,2,1,"Flanker"
4,47,1,1,1,0.39954,2,1,"Flanker"
4,48,1,2,1,0.3644,2,1,"Flanker"
4,49,1,2,1,0.42426,2,1,"Flanker"
4,50,1,2,1,0.49133,2,1,"Flanker"
4,51,2,2,1,0.47344,2,1,"Flanker"
4,52,2,0,1,0.50213,2,1,"Flanker"
4,53,1,1,1,0.46823,2,1,"Flanker"
4,54,2,0,1,0.43367,2,1,"Flanker"
4,55,2,1,1,0.47111,2,1,"Flanker"
4,56,2,0,1,0.46884,2,1,"Flanker"
4,57,1,1,1,0.42894,2,1,"Flanker"
4,58,2,1,1,0.44797,2,1,"Flanker"
4,59,2,0,1,0.44445,2,1,"Flanker"
4,60,2,1,1,0.48911,2,1,"Flanker"
4,61,1,0,1,0.44033,2,1,"Flanker"
4,62,1,1,1,0.41496,2,1,"Flanker"
4,63,2,2,1,0.40155,2,1,"Flanker"
4,64,1,2,1,0.42964,2,1,"Flanker"
4,65,2,2,1,0.48196,2,1,"Flanker"
4,66,2,2,1,0.50466,2,1,"Flanker"
4,67,1,0,1,0.51016,2,1,"Flanker"
4,68,2,2,1,0.56421,2,1,"Flanker"
4,69,1,2,1,0.40528,2,1,"Flanker"
4,70,2,2,1,0.42477,2,1,"Flanker"
4,71,1,2,1,0.4608,2,1,"Flanker"
4,72,2,1,1,0.459,2,1,"Flanker"
4,73,1,0,1,0.36934,2,1,"Flanker"
4,74,1,1,1,0.44471,2,1,"Flanker"
4,75,1,2,1,0.39328,2,1,"Flanker"
4,76,2,1,1,0.45363,2,1,"Flanker"
4,77,1,2,1,0.41765,2,1,"Flanker"
4,78,1,0,1,0.36615,2,1,"Flanker"
4,79,1,0,1,0.35278,2,1,"Flanker"
4,80,2,0,1,0.40667,2,1,"Flanker"
4,81,1,0,1,0.45755,2,1,"Flanker"
4,82,2,1,1,0.48598,2,1,"Flanker"
4,83,1,1,1,0.38818,2,1,"Flanker"
4,84,2,1,1,0.41578,2,1,"Flanker"
4,85,2,1,1,0.44313,2,1,"Flanker"
4,86,1,0,1,0.44136,2,1,"Flanker"
4,87,2,0,1,0.3673,2,1,"Flanker"
4,88,1,2,1,0.38647,2,1,"Flanker"
4,89,1,2,1,0.52477,2,1,"Flanker"
4,90,1,1,1,0.41216,2,1,"Flanker"
4,91,2,1,1,0.45017,2,1,"Flanker"
4,92,2,2,0,0.3913,2,1,"Flanker"
4,93,2,2,1,0.48993,2,1,"Flanker"
4,94,2,2,1,0.43268,2,1,"Flanker"
4,95,2,0,1,0.42212,2,1,"Flanker"
4,96,2,0,1,0.45847,2,1,"Flanker"
4,97,1,0,1,0.39035,2,1,"Flanker"
4,98,1,2,1,0.47585,2,1,"Flanker"
4,99,1,0,1,0.40988,2,1,"Flanker"
4,100,2,0,1,0.46153,2,1,"Flanker"
4,101,1,0,1,0.35436,2,1,"Flanker"
4,102,2,1,1,0.45418,2,1,"Flanker"
4,103,2,0,1,0.46582,2,1,"Flanker"
4,104,2,1,1,0.4799,2,1,"Flanker"
4,105,2,0,1,0.55815,2,1,"Flanker"
4,106,2,1,1,0.40857,2,1,"Flanker"
4,107,1,1,1,0.54679,2,1,"Flanker"
4,108,2,1,1,0.45014,2,1,"Flanker"
4,109,2,2,1,0.48782,2,1,"Flanker"
4,110,2,0,1,0.42059,2,1,"Flanker"
4,111,1,0,1,0.41035,2,1,"Flanker"
4,112,1,0,1,0.38153,2,1,"Flanker"
4,113,2,1,1,0.48128,2,1,"Flanker"
4,114,2,1,1,0.42265,2,1,"Flanker"
4,115,1,0,1,0.37932,2,1,"Flanker"
4,116,1,2,1,0.47088,2,1,"Flanker"
4,117,2,0,1,0.40558,2,1,"Flanker"
4,118,2,0,1,0.48031,2,1,"Flanker"
4,119,2,2,1,0.45643,2,1,"Flanker"
4,120,1,2,1,0.44626,2,1,"Flanker"
4,121,1,1,1,0.39438,2,1,"Flanker"
4,122,1,2,1,0.59791,2,1,"Flanker"
4,123,2,1,1,0.44961,2,1,"Flanker"
4,124,1,0,1,0.45938,2,1,"Flanker"
4,125,2,1,1,0.48865,2,1,"Flanker"
4,126,1,2,1,0.35109,2,1,"Flanker"
4,127,2,1,1,0.43388,2,1,"Flanker"
4,128,1,1,1,0.39116,2,1,"Flanker"
4,129,2,0,1,0.37005,2,1,"Flanker"
4,130,1,0,1,0.35885,2,1,"Flanker"
4,131,1,2,1,0.48947,2,1,"Flanker"
4,132,1,1,1,0.37837,2,1,"Flanker"
4,133,2,2,1,0.4599,2,1,"Flanker"
4,134,1,2,1,0.42413,2,1,"Flanker"
4,135,1,0,1,0.43087,2,1,"Flanker"
4,136,1,0,1,0.61204,2,1,"Flanker"
4,137,1,1,1,0.37067,2,1,"Flanker"
4,138,2,0,1,0.43125,2,1,"Flanker"
4,139,1,2,1,0.58756,2,1,"Flanker"
4,140,2,0,1,0.4688,2,1,"Flanker"
4,141,1,1,1,0.3691,2,1,"Flanker"
4,142,2,1,1,0.47628,2,1,"Flanker"
4,143,2,2,1,0.44962,2,1,"Flanker"
4,144,1,2,0,0.40753,2,1,"Flanker"
5,1,1,1,1,0.7606,2,1,"Flanker"
5,2,1,0,1,0.39724,2,1,"Flanker"
5,3,1,1,1,0.35302,2,1,"Flanker"
5,4,1,2,1,0.45893,2,1,"Flanker"
5,5,2,0,1,0.42488,2,1,"Flanker"
5,6,1,1,1,0.31008,2,1,"Flanker"
5,7,1,1,1,0.35978,2,1,"Flanker"
5,8,2,0,1,0.41023,2,1,"Flanker"
5,9,2,1,1,0.46243,2,1,"Flanker"
5,10,2,0,0,0.31545,2,1,"Flanker"
5,11,1,2,1,0.48615,2,1,"Flanker"
5,12,1,0,1,0.42024,2,1,"Flanker"
5,13,1,2,1,0.46459,2,1,"Flanker"
5,14,1,1,1,0.37389,2,1,"Flanker"
5,15,2,1,1,0.44214,2,1,"Flanker"
5,16,2,1,1,0.3986,2,1,"Flanker"
5,17,1,2,1,0.41794,2,1,"Flanker"
5,18,2,0,1,0.39896,2,1,"Flanker"
5,19,2,2,1,0.53038,2,1,"Flanker"
5,20,2,0,1,0.39433,2,1,"Flanker"
5,21,2,0,1,0.38245,2,1,"Flanker"
5,22,2,2,1,0.48931,2,1,"Flanker"
5,23,2,2,1,0.52718,2,1,"Flanker"
5,24,2,2,1,0.42383,2,1,"Flanker"
5,25,2,2,1,0.35505,2,1,"Flanker"
5,26,1,2,0,0.42281,2,1,"Flanker"
5,27,2,2,1,0.42736,2,1,"Flanker"
5,28,1,1,1,0.44042,2,1,"Flanker"
5,29,2,2,1,0.43684,2,1,"Flanker"
5,30,2,0,1,0.42839,2,1,"Flanker"
5,31,2,1,1,0.3926,2,1,"Flanker"
5,32,1,1,1,0.44279,2,1,"Flanker"
5,33,1,2,1,0.47048,2,1,"Flanker"
5,34,2,0,1,0.42811,2,1,"Flanker"
5,35,2,1,1,0.42655,2,1,"Flanker"
5,36,1,1,1,0.4225,2,1,"Flanker"
5,37,2,1,1,0.40162,2,1,"Flanker"
5,38,2,0,1,0.44777,2,1,"Flanker"
5,39,2,2,1,0.48406,2,1,"Flanker"
5,40,1,2,1,0.36237,2,1,"Flanker"
5,41,1,0,1,0.40473,2,1,"Flanker"
5,42,1,2,1,0.39262,2,1,"Flanker"
5,43,2,2,1,0.46071,2,1,"Flanker"
5,44,2,2,1,0.52949,2,1,"Flanker"
5,45,2,0,1,0.35377,2,1,"Flanker"
5,46,1,2,1,0.38129,2,1,"Flanker"
5,47,1,1,1,0.41611,2,1,"Flanker"
5,48,1,0,1,0.36529,2,1,"Flanker"
5,49,2,2,1,0.42503,2,1,"Flanker"
5,50,1,1,1,0.31628,2,1,"Flanker"
5,51,1,1,1,0.36658,2,1,"Flanker"
5,52,1,0,1,0.36148,2,1,"Flanker"
5,53,2,0,1,0.4937,2,1,"Flanker"
5,54,2,2,1,0.51577,2,1,"Flanker"
5,55,2,1,1,0.38523,2,1,"Flanker"
5,56,2,1,1,0.37326,2,1,"Flanker"
5,57,2,2,1,0.353,2,1,"Flanker"
5,58,2,2,1,0.51651,2,1,"Flanker"
5,59,2,1,1,0.40304,2,1,"Flanker"
5,60,2,2,1,0.54349,2,1,"Flanker"
5,61,1,0,1,0.4053,2,1,"Flanker"
5,62,1,0,1,0.33931,2,1,"Flanker"
5,63,2,2,1,0.38984,2,1,"Flanker"
5,64,2,1,1,0.4008,2,1,"Flanker"
5,65,1,2,1,0.43632,2,1,"Flanker"
5,66,2,1,1,0.40935,2,1,"Flanker"
5,67,1,1,1,0.34951,2,1,"Flanker"
5,68,1,0,1,0.40838,2,1,"Flanker"
5,69,1,0,1,0.34115,2,1,"Flanker"
5,70,1,2,1,0.33544,2,1,"Flanker"
5,71,1,1,1,0.33009,2,1,"Flanker"
5,72,1,2,1,0.34788,2,1,"Flanker"
5,73,2,1,1,0.43195,2,1,"Flanker"
5,74,2,0,1,0.34004,2,1,"Flanker"
5,75,1,0,1,0.39923,2,1,"Flanker"
5,76,1,0,1,0.42696,2,1,"Flanker"
5,77,2,1,1,0.40791,2,1,"Flanker"
5,78,2,0,1,0.41985,2,1,"Flanker"
5,79,2,0,1,0.38412,2,1,"Flanker"
5,80,2,2,1,0.56534,2,1,"Flanker"
5,81,2,2,1,0.45874,2,1,"Flanker"
5,82,1,2,1,0.36814,2,1,"Flanker"
5,83,1,1,1,0.3638,2,1,"Flanker"
5,84,1,1,1,0.34192,2,1,"Flanker"
5,85,2,0,0,0.39453,2,1,"Flanker"
5,86,2,0,1,0.4853,2,1,"Flanker"
5,87,2,0,1,0.37167,2,1,"Flanker"
5,88,2,1,1,0.43919,2,1,"Flanker"
5,89,1,0,1,0.40275,2,1,"Flanker"
5,90,1,0,1,0.33488,2,1,"Flanker"
5,91,1,0,1,0.35447,2,1,"Flanker"
5,92,1,2,1,0.40604,2,1,"Flanker"
5,93,1,2,1,0.43291,2,1,"Flanker"
5,94,1,2,1,0.49447,2,1,"Flanker"
5,95,2,0,1,0.46062,2,1,"Flanker"
5,96,2,0,1,0.44261,2,1,"Flanker"
5,97,2,2,0,0.39268,2,1,"Flanker"
5,98,1,2,1,0.4276,2,1,"Flanker"
5,99,1,0,1,0.38378,2,1,"Flanker"
5,100,1,1,1,0.37917,2,1,"Flanker"
5,101,2,2,1,0.44797,2,1,"Flanker"
5,102,1,0,1,0.43697,2,1,"Flanker"
5,103,2,1,1,0.34554,2,1,"Flanker"
5,104,2,0,1,0.37085,2,1,"Flanker"
5,105,2,1,1,0.40015,2,1,"Flanker"
5,106,2,1,1,0.40369,2,1,"Flanker"
5,107,1,2,1,0.47914,2,1,"Flanker"
5,108,1,0,1,0.37329,2,1,"Flanker"
5,109,2,2,1,0.54492,2,1,"Flanker"
5,110,1,2,1,0.41637,2,1,"Flanker"
5,111,1,2,1,0.49987,2,1,"Flanker"
5,112,1,1,1,0.40995,2,1,"Flanker"
5,113,1,1,1,0.3919,2,1,"Flanker"
5,114,2,1,1,0.46599,2,1,"Flanker"
5,115,2,0,1,0.43257,2,1,"Flanker"
5,116,1,1,1,0.42888,2,1,"Flanker"
5,117,2,1,1,0.43404,2,1,"Flanker"
5,118,1,0,1,0.33549,2,1,"Flanker"
5,119,1,2,0,0.37111,2,1,"Flanker"
5,120,1,2,1,0.3733,2,1,"Flanker"
5,121,1,0,1,0.39316,2,1,"Flanker"
5,122,2,2,1,0.46786,2,1,"Flanker"
5,123,2,0,1,0.44098,2,1,"Flanker"
5,124,1,0,1,0.42274,2,1,"Flanker"
5,125,2,0,1,0.47522,2,1,"Flanker"
5,126,1,1,1,0.36892,2,1,"Flanker"
5,127,2,1,1,0.46703,2,1,"Flanker"
5,128,2,1,1,0.40267,2,1,"Flanker"
5,129,1,0,1,0.39901,2,1,"Flanker"
5,130,1,0,1,0.41012,2,1,"Flanker"
5,131,1,0,1,0.39072,2,1,"Flanker"
5,132,1,0,1,0.43345,2,1,"Flanker"
5,133,2,1,1,0.50396,2,1,"Flanker"
5,134,1,1,1,0.42203,2,1,"Flanker"
5,135,2,2,1,0.45663,2,1,"Flanker"
5,136,2,1,1,0.43064,2,1,"Flanker"
5,137,1,1,1,0.41977,2,1,"Flanker"
5,138,2,1,1,0.44039,2,1,"Flanker"
5,139,2,0,1,0.45383,2,1,"Flanker"
5,140,1,2,1,0.56251,2,1,"Flanker"
5,141,2,2,1,0.51441,2,1,"Flanker"
5,142,1,2,1,0.36068,2,1,"Flanker"
5,143,1,1,1,0.44437,2,1,"Flanker"
5,144,1,1,1,0.37921,2,1,"Flanker"
1,1,1,1,1,0.87611,2,2,"Flanker"
1,2,1,1,1,0.45041,2,2,"Flanker"
1,3,1,0,1,0.46363,2,2,"Flanker"
1,4,1,2,1,0.74233,2,2,"Flanker"
1,5,2,2,1,0.52939,2,2,"Flanker"
1,6,1,0,1,0.40197,2,2,"Flanker"
1,7,2,0,1,0.44435,2,2,"Flanker"
1,8,1,0,1,0.35326,2,2,"Flanker"
1,9,2,0,1,0.40429,2,2,"Flanker"
1,10,2,1,1,0.47236,2,2,"Flanker"
1,11,2,1,1,0.40995,2,2,"Flanker"
1,12,1,0,1,0.47441,2,2,"Flanker"
1,13,1,0,1,0.3536,2,2,"Flanker"
1,14,2,1,1,0.44572,2,2,"Flanker"
1,15,2,1,1,0.36946,2,2,"Flanker"
1,16,1,0,1,0.45224,2,2,"Flanker"
1,17,1,2,1,0.36321,2,2,"Flanker"
1,18,2,0,1,0.39826,2,2,"Flanker"
1,19,2,2,1,0.52972,2,2,"Flanker"
1,20,2,0,1,0.36841,2,2,"Flanker"
1,21,1,0,1,0.40506,2,2,"Flanker"
1,22,1,0,1,0.42632,2,2,"Flanker"
1,23,2,1,1,0.44482,2,2,"Flanker"
1,24,1,0,1,0.36109,2,2,"Flanker"
1,25,2,0,1,0.39796,2,2,"Flanker"
1,26,1,1,0,0.34614,2,2,"Flanker"
1,27,1,2,1,0.38815,2,2,"Flanker"
1,28,2,2,1,0.45766,2,2,"Flanker"
1,29,1,0,1,0.58869,2,2,"Flanker"
1,30,1,2,1,0.36596,2,2,"Flanker"
1,31,2,2,0,0.32877,2,2,"Flanker"
1,32,1,1,1,0.32557,2,2,"Flanker"
1,33,2,1,0,0.35765,2,2,"Flanker"
1,34,1,2,1,0.47297,2,2,"Flanker"
1,35,2,1,1,0.42892,2,2,"Flanker"
1,36,2,0,1,0.35368,2,2,"Flanker"
1,37,1,0,1,0.38872,2,2,"Flanker"
1,38,1,2,1,0.45757,2,2,"Flanker"
1,39,2,2,1,0.45489,2,2,"Flanker"
1,40,1,2,1,0.33232,2,2,"Flanker"
1,41,2,1,0,0.31684,2,2,"Flanker"
1,42,1,1,1,0.33725,2,2,"Flanker"
1,43,1,0,1,0.37891,2,2,"Flanker"
1,44,2,2,1,0.4388,2,2,"Flanker"
1,45,2,2,0,0.31531,2,2,"Flanker"
1,46,1,1,1,0.40619,2,2,"Flanker"
1,47,2,1,1,0.41042,2,2,"Flanker"
1,48,1,1,1,0.42153,2,2,"Flanker"
1,49,1,2,1,0.33725,2,2,"Flanker"
1,50,1,0,1,0.34872,2,2,"Flanker"
1,51,2,0,1,0.44813,2,2,"Flanker"
1,52,2,1,1,0.34784,2,2,"Flanker"
1,53,2,0,1,0.3748,2,2,"Flanker"
1,54,1,1,1,0.42004,2,2,"Flanker"
1,55,1,1,1,0.35248,2,2,"Flanker"
1,56,1,2,1,0.53789,2,2,"Flanker"
1,57,2,1,1,0.42573,2,2,"Flanker"
1,58,1,0,1,0.37333,2,2,"Flanker"
1,59,2,2,1,0.44874,2,2,"Flanker"
1,60,1,1,1,0.38307,2,2,"Flanker"
1,61,2,2,1,0.48357,2,2,"Flanker"
1,62,2,2,0,0.35256,2,2,"Flanker"
1,63,1,1,1,0.37058,2,2,"Flanker"
1,64,2,2,1,0.43175,2,2,"Flanker"
1,65,1,2,1,0.37395,2,2,"Flanker"
1,66,1,0,1,0.34412,2,2,"Flanker"
1,67,2,2,1,0.45872,2,2,"Flanker"
1,68,1,2,1,0.40734,2,2,"Flanker"
1,69,2,1,1,0.4045,2,2,"Flanker"
1,70,1,2,1,0.40057,2,2,"Flanker"
1,71,1,0,1,0.38945,2,2,"Flanker"
1,72,1,0,1,0.3357,2,2,"Flanker"
1,73,1,1,1,0.32275,2,2,"Flanker"
1,74,2,2,1,0.42908,2,2,"Flanker"
1,75,2,0,1,0.40153,2,2,"Flanker"
1,76,1,1,1,0.43829,2,2,"Flanker"
1,77,2,0,1,0.41724,2,2,"Flanker"
1,78,1,0,1,0.43846,2,2,"Flanker"
1,79,1,2,1,0.47631,2,2,"Flanker"
1,80,2,2,1,0.36189,2,2,"Flanker"
1,81,1,2,1,0.38187,2,2,"Flanker"
1,82,1,2,1,0.27199,2,2,"Flanker"
1,83,2,0,0,0.36845,2,2,"Flanker"
1,84,1,1,1,0.29373,2,2,"Flanker"
1,85,1,2,1,0.29466,2,2,"Flanker"
1,86,1,2,1,0.35214,2,2,"Flanker"
1,87,2,1,1,0.43628,2,2,"Flanker"
1,88,2,0,1,0.40864,2,2,"Flanker"
1,89,2,1,1,0.37261,2,2,"Flanker"
1,90,2,2,0,0.37574,2,2,"Flanker"
1,91,2,0,1,0.33085,2,2,"Flanker"
1,92,2,0,1,0.319,2,2,"Flanker"
1,93,1,1,1,0.37463,2,2,"Flanker"
1,94,2,0,1,0.39529,2,2,"Flanker"
1,95,2,1,1,0.43967,2,2,"Flanker"
1,96,2,2,1,0.50735,2,2,"Flanker"
1,97,2,1,1,0.37845,2,2,"Flanker"
1,98,2,0,1,0.38956,2,2,"Flanker"
1,99,1,1,1,0.39562,2,2,"Flanker"
1,100,1,1,1,0.30062,2,2,"Flanker"
1,101,2,0,1,0.415,2,2,"Flanker"
1,102,1,2,1,0.42683,2,2,"Flanker"
1,103,2,2,1,0.41721,2,2,"Flanker"
1,104,1,0,1,0.33992,2,2,"Flanker"
1,105,2,1,1,0.36957,2,2,"Flanker"
1,106,2,2,1,0.64173,2,2,"Flanker"
1,107,1,1,1,0.46695,2,2,"Flanker"
1,108,1,0,1,0.32967,2,2,"Flanker"
1,109,1,2,1,0.49483,2,2,"Flanker"
1,110,1,1,1,0.33015,2,2,"Flanker"
1,111,2,1,1,0.44454,2,2,"Flanker"
1,112,1,1,1,0.39374,2,2,"Flanker"
1,113,1,2,1,0.42175,2,2,"Flanker"
1,114,2,0,1,0.4669,2,2,"Flanker"
1,115,2,0,1,0.63935,2,2,"Flanker"
1,116,2,2,1,0.35359,2,2,"Flanker"
1,117,2,1,1,0.29953,2,2,"Flanker"
1,118,2,2,1,0.32642,2,2,"Flanker"
1,119,2,1,1,0.34473,2,2,"Flanker"
1,120,1,1,1,0.74723,2,2,"Flanker"
1,121,2,0,1,0.54422,2,2,"Flanker"
1,122,2,0,1,0.43924,2,2,"Flanker"
1,123,1,1,1,0.42306,2,2,"Flanker"
1,124,1,2,1,0.48057,2,2,"Flanker"
1,125,1,2,1,0.56548,2,2,"Flanker"
1,126,2,2,0,0.50379,2,2,"Flanker"
1,127,2,2,0,0.3889,2,2,"Flanker"
1,128,1,0,1,0.314,2,2,"Flanker"
1,129,1,0,1,0.33815,2,2,"Flanker"
1,130,2,1,1,0.35869,2,2,"Flanker"
1,131,2,2,0,0.44064,2,2,"Flanker"
1,132,2,0,1,0.39704,2,2,"Flanker"
1,133,2,2,1,0.34744,2,2,"Flanker"
1,134,2,1,1,0.37315,2,2,"Flanker"
1,135,1,0,0,0.36066,2,2,"Flanker"
1,136,1,2,1,0.48376,2,2,"Flanker"
1,137,1,0,1,0.35456,2,2,"Flanker"
1,138,2,0,1,0.47617,2,2,"Flanker"
1,139,2,1,1,0.32237,2,2,"Flanker"
1,140,1,1,1,0.3876,2,2,"Flanker"
1,141,2,1,1,0.55253,2,2,"Flanker"
1,142,2,0,1,0.36758,2,2,"Flanker"
1,143,1,1,1,0.41879,2,2,"Flanker"
1,144,1,2,1,0.3918,2,2,"Flanker"
2,1,2,0,1,0.65128,2,2,"Flanker"
2,2,1,2,1,0.42104,2,2,"Flanker"
2,3,2,2,1,0.38718,2,2,"Flanker"
2,4,2,2,1,0.37427,2,2,"Flanker"
2,5,1,2,1,0.41681,2,2,"Flanker"
2,6,2,2,1,0.34892,2,2,"Flanker"
2,7,1,1,0,0.36702,2,2,"Flanker"
2,8,1,1,1,0.37151,2,2,"Flanker"
2,9,1,0,1,0.42278,2,2,"Flanker"
2,10,2,1,0,0.36422,2,2,"Flanker"
2,11,2,1,1,0.38306,2,2,"Flanker"
2,12,2,1,1,0.3873,2,2,"Flanker"
2,13,1,2,1,0.38953,2,2,"Flanker"
2,14,2,1,1,0.35382,2,2,"Flanker"
2,15,2,1,1,0.44461,2,2,"Flanker"
2,16,2,0,1,0.36979,2,2,"Flanker"
2,17,1,2,1,0.42927,2,2,"Flanker"
2,18,2,0,1,0.43306,2,2,"Flanker"
2,19,2,2,1,0.57564,2,2,"Flanker"
2,20,1,2,1,0.3842,2,2,"Flanker"
2,21,1,2,1,0.38593,2,2,"Flanker"
2,22,1,0,1,0.35879,2,2,"Flanker"
2,23,2,0,1,0.43349,2,2,"Flanker"
2,24,1,1,1,0.46287,2,2,"Flanker"
2,25,1,1,1,0.38232,2,2,"Flanker"
2,26,1,0,1,0.36064,2,2,"Flanker"
2,27,1,2,0,0.35577,2,2,"Flanker"
2,28,2,1,1,0.3979,2,2,"Flanker"
2,29,2,0,1,0.35388,2,2,"Flanker"
2,30,2,0,1,0.37404,2,2,"Flanker"
2,31,2,0,0,0.31166,2,2,"Flanker"
2,32,2,1,1,0.42696,2,2,"Flanker"
2,33,2,2,1,0.49493,2,2,"Flanker"
2,34,1,1,1,0.40564,2,2,"Flanker"
2,35,1,1,1,0.48878,2,2,"Flanker"
2,36,2,2,1,0.53453,2,2,"Flanker"
2,37,2,2,1,0.51975,2,2,"Flanker"
2,38,2,2,1,0.47762,2,2,"Flanker"
2,39,1,0,1,0.5157,2,2,"Flanker"
2,40,1,0,1,0.46619,2,2,"Flanker"
2,41,2,2,1,0.50589,2,2,"Flanker"
2,42,1,1,1,0.39948,2,2,"Flanker"
2,43,1,2,1,0.49117,2,2,"Flanker"
2,44,1,0,1,0.40275,2,2,"Flanker"
2,45,2,2,1,0.55797,2,2,"Flanker"
2,46,2,2,1,0.56404,2,2,"Flanker"
2,47,2,0,1,0.47757,2,2,"Flanker"
2,48,1,2,1,0.38841,2,2,"Flanker"
2,49,1,2,1,0.40071,2,2,"Flanker"
2,50,1,1,1,0.39458,2,2,"Flanker"
2,51,2,1,1,0.47941,2,2,"Flanker"
2,52,1,0,1,0.47746,2,2,"Flanker"
2,53,2,1,1,0.38706,2,2,"Flanker"
2,54,2,2,1,0.58988,2,2,"Flanker"
2,55,2,0,1,0.40759,2,2,"Flanker"
2,56,1,1,1,0.43425,2,2,"Flanker"
2,57,2,2,1,0.54426,2,2,"Flanker"
2,58,1,0,1,0.4404,2,2,"Flanker"
2,59,2,1,1,0.45337,2,2,"Flanker"
2,60,1,0,1,0.57728,2,2,"Flanker"
2,61,1,1,1,0.34527,2,2,"Flanker"
2,62,2,0,1,0.45975,2,2,"Flanker"
2,63,2,0,1,0.48284,2,2,"Flanker"
2,64,1,0,1,0.37494,2,2,"Flanker"
2,65,1,1,1,0.38012,2,2,"Flanker"
2,66,2,2,1,0.45553,2,2,"Flanker"
2,67,2,1,1,0.41292,2,2,"Flanker"
2,68,1,0,1,0.33699,2,2,"Flanker"
2,69,2,1,1,0.41829,2,2,"Flanker"
2,70,1,1,1,0.41543,2,2,"Flanker"
2,71,1,0,1,0.33306,2,2,"Flanker"
2,72,2,1,1,0.44713,2,2,"Flanker"
2,73,1,1,1,0.33889,2,2,"Flanker"
2,74,1,1,1,0.31741,2,2,"Flanker"
2,75,1,1,1,0.33567,2,2,"Flanker"
2,76,1,1,1,0.30795,2,2,"Flanker"
2,77,1,2,1,0.31791,2,2,"Flanker"
2,78,2,2,1,0.44953,2,2,"Flanker"
2,79,1,2,1,0.35636,2,2,"Flanker"
2,80,1,2,1,0.48694,2,2,"Flanker"
2,81,2,0,1,0.49342,2,2,"Flanker"
2,82,1,2,1,0.34081,2,2,"Flanker"
2,83,2,0,1,0.58336,2,2,"Flanker"
2,84,1,2,1,0.31911,2,2,"Flanker"
2,85,2,0,1,0.45692,2,2,"Flanker"
2,86,2,1,1,0.44568,2,2,"Flanker"
2,87,2,0,1,0.37896,2,2,"Flanker"
2,88,1,0,1,0.46402,2,2,"Flanker"
2,89,2,2,1,0.45295,2,2,"Flanker"
2,90,1,2,1,0.36279,2,2,"Flanker"
2,91,2,1,1,0.60375,2,2,"Flanker"
2,92,2,1,1,0.46143,2,2,"Flanker"
2,93,1,0,1,0.4208,2,2,"Flanker"
2,94,1,1,1,0.3767,2,2,"Flanker"
2,95,1,0,1,0.35477,2,2,"Flanker"
2,96,2,0,0,0.46157,2,2,"Flanker"
2,97,2,2,1,0.38716,2,2,"Flanker"
2,98,1,2,0,0.31211,2,2,"Flanker"
2,99,2,0,1,0.40941,2,2,"Flanker"
2,100,2,1,1,0.36037,2,2,"Flanker"
2,101,2,1,1,0.3216,2,2,"Flanker"
2,102,1,2,0,0.31532,2,2,"Flanker"
2,103,2,2,1,0.53988,2,2,"Flanker"
2,104,1,0,1,0.40379,2,2,"Flanker"
2,105,1,2,1,0.2875,2,2,"Flanker"
2,106,2,1,1,0.4027,2,2,"Flanker"
2,107,1,1,1,0.34275,2,2,"Flanker"
2,108,1,2,1,0.51508,2,2,"Flanker"
2,109,1,1,1,0.36824,2,2,"Flanker"
2,110,1,0,1,0.33773,2,2,"Flanker"
2,111,1,1,1,0.33247,2,2,"Flanker"
2,112,1,2,1,0.36699,2,2,"Flanker"
2,113,1,1,1,0.35536,2,2,"Flanker"
2,114,2,2,1,0.45547,2,2,"Flanker"
2,115,2,1,1,0.29822,2,2,"Flanker"
2,116,1,1,1,0.39132,2,2,"Flanker"
2,117,2,1,1,0.29685,2,2,"Flanker"
2,118,2,0,1,0.42514,2,2,"Flanker"
2,119,1,2,1,0.38262,2,2,"Flanker"
2,120,1,0,1,0.39494,2,2,"Flanker"
2,121,2,0,1,0.3364,2,2,"Flanker"
2,122,2,2,1,0.45557,2,2,"Flanker"
2,123,1,0,1,0.38252,2,2,"Flanker"
2,124,2,0,1,0.45814,2,2,"Flanker"
2,125,2,0,1,0.47049,2,2,"Flanker"
2,126,1,1,1,0.38919,2,2,"Flanker"
2,127,1,0,1,0.35177,2,2,"Flanker"
2,128,2,0,1,0.41845,2,2,"Flanker"
2,129,2,2,1,0.46483,2,2,"Flanker"
2,130,2,2,1,0.38235,2,2,"Flanker"
2,131,1,2,1,0.34461,2,2,"Flanker"
2,132,1,0,1,0.29951,2,2,"Flanker"
2,133,2,0,0,0.33284,2,2,"Flanker"
2,134,2,1,1,0.40754,2,2,"Flanker"
2,135,1,0,1,0.4041,2,2,"Flanker"
2,136,2,2,1,0.30452,2,2,"Flanker"
2,137,2,1,1,0.43282,2,2,"Flanker"
2,138,1,1,1,0.36065,2,2,"Flanker"
2,139,2,1,1,0.45798,2,2,"Flanker"
2,140,1,0,1,0.35976,2,2,"Flanker"
2,141,1,0,1,0.28224,2,2,"Flanker"
2,142,1,2,1,0.46676,2,2,"Flanker"
2,143,2,0,1,0.41062,2,2,"Flanker"
2,144,2,2,1,0.40435,2,2,"Flanker"
3,1,1,2,1,0.55735,2,2,"Flanker"
3,2,2,1,1,0.45159,2,2,"Flanker"
3,3,1,2,1,0.36938,2,2,"Flanker"
3,4,1,2,1,0.4445,2,2,"Flanker"
3,5,1,1,1,0.37704,2,2,"Flanker"
3,6,2,1,1,0.39617,2,2,"Flanker"
3,7,2,1,1,0.37015,2,2,"Flanker"
3,8,1,2,1,0.45346,2,2,"Flanker"
3,9,1,0,1,0.32965,2,2,"Flanker"
3,10,1,2,1,0.47663,2,2,"Flanker"
3,11,2,0,0,0.33789,2,2,"Flanker"
3,12,2,0,1,0.43649,2,2,"Flanker"
3,13,2,2,1,0.49698,2,2,"Flanker"
3,14,1,1,1,0.38343,2,2,"Flanker"
3,15,1,2,1,0.41893,2,2,"Flanker"
3,16,1,0,1,0.35965,2,2,"Flanker"
3,17,1,1,1,0.41007,2,2,"Flanker"
3,18,2,1,1,0.40723,2,2,"Flanker"
3,19,2,0,0,0.42006,2,2,"Flanker"
3,20,1,0,1,0.44808,2,2,"Flanker"
3,21,2,2,1,0.45372,2,2,"Flanker"
3,22,1,2,1,0.39443,2,2,"Flanker"
3,23,2,2,1,0.51877,2,2,"Flanker"
3,24,2,1,1,0.44564,2,2,"Flanker"
3,25,1,0,1,0.36981,2,2,"Flanker"
3,26,2,1,1,0.32568,2,2,"Flanker"
3,27,1,2,1,0.44862,2,2,"Flanker"
3,28,1,0,1,0.37381,2,2,"Flanker"
3,29,1,2,1,0.31605,2,2,"Flanker"
3,30,1,0,1,0.35469,2,2,"Flanker"
3,31,2,0,1,0.78283,2,2,"Flanker"
3,32,1,2,1,0.436,2,2,"Flanker"
3,33,2,2,1,0.43913,2,2,"Flanker"
3,34,1,0,1,0.35649,2,2,"Flanker"
3,35,1,0,1,0.28196,2,2,"Flanker"
3,36,2,2,1,0.40956,2,2,"Flanker"
3,37,1,0,1,0.45357,2,2,"Flanker"
3,38,1,0,1,0.33097,2,2,"Flanker"
3,39,1,0,1,0.3487,2,2,"Flanker"
3,40,2,0,1,0.54349,2,2,"Flanker"
3,41,2,1,1,0.39923,2,2,"Flanker"
3,42,2,0,1,0.35373,2,2,"Flanker"
3,43,2,0,1,0.35091,2,2,"Flanker"
3,44,1,1,0,0.37533,2,2,"Flanker"
3,45,1,2,1,0.46866,2,2,"Flanker"
3,46,2,0,1,0.43247,2,2,"Flanker"
3,47,2,2,0,0.38331,2,2,"Flanker"
3,48,2,0,1,0.36911,2,2,"Flanker"
3,49,1,0,1,0.42161,2,2,"Flanker"
3,50,1,2,1,0.37267,2,2,"Flanker"
3,51,1,1,1,0.38971,2,2,"Flanker"
3,52,2,1,1,0.40073,2,2,"Flanker"
3,53,1,2,1,0.52003,2,2,"Flanker"
3,54,2,2,1,0.44395,2,2,"Flanker"
3,55,1,2,1,0.36803,2,2,"Flanker"
3,56,2,1,1,0.39545,2,2,"Flanker"
3,57,2,0,1,0.47189,2,2,"Flanker"
3,58,1,0,1,0.4545,2,2,"Flanker"
3,59,2,1,1,0.41939,2,2,"Flanker"
3,60,1,1,1,0.34488,2,2,"Flanker"
3,61,2,0,1,0.39386,2,2,"Flanker"
3,62,1,0,1,0.36663,2,2,"Flanker"
3,63,1,0,1,0.35612,2,2,"Flanker"
3,64,1,1,1,0.4038,2,2,"Flanker"
3,65,2,0,1,0.44237,2,2,"Flanker"
3,66,2,0,1,0.51037,2,2,"Flanker"
3,67,1,2,1,0.34742,2,2,"Flanker"
3,68,1,1,1,0.33554,2,2,"Flanker"
3,69,2,0,1,0.42527,2,2,"Flanker"
3,70,2,1,1,0.37316,2,2,"Flanker"
3,71,1,1,1,0.41671,2,2,"Flanker"
3,72,1,1,1,0.38284,2,2,"Flanker"
3,73,2,1,1,0.40985,2,2,"Flanker"
3,74,1,1,1,0.383,2,2,"Flanker"
3,75,2,2,1,0.46584,2,2,"Flanker"
3,76,1,1,1,0.37663,2,2,"Flanker"
3,77,2,1,1,0.36299,2,2,"Flanker"
3,78,1,1,1,0.34165,2,2,"Flanker"
3,79,2,1,1,0.41656,2,2,"Flanker"
3,80,2,2,1,0.56456,2,2,"Flanker"
3,81,2,1,1,0.52541,2,2,"Flanker"
3,82,1,2,1,0.38901,2,2,"Flanker"
3,83,1,2,0,0.40762,2,2,"Flanker"
3,84,2,1,1,0.42907,2,2,"Flanker"
3,85,1,2,1,0.34699,2,2,"Flanker"
3,86,2,1,1,0.43762,2,2,"Flanker"
3,87,1,0,1,0.3998,2,2,"Flanker"
3,88,2,2,1,0.50789,2,2,"Flanker"
3,89,1,1,1,0.38,2,2,"Flanker"
3,90,2,2,1,0.3657,2,2,"Flanker"
3,91,2,2,1,0.43498,2,2,"Flanker"
3,92,1,2,1,0.615,2,2,"Flanker"
3,93,2,2,1,0.44742,2,2,"Flanker"
3,94,2,2,1,0.42102,2,2,"Flanker"
3,95,2,2,1,0.4588,2,2,"Flanker"
3,96,2,2,1,0.46307,2,2,"Flanker"
3,97,2,0,1,0.34976,2,2,"Flanker"
3,98,2,2,1,0.5268,2,2,"Flanker"
3,99,1,1,1,0.45588,2,2,"Flanker"
3,100,2,2,1,0.44405,2,2,"Flanker"
3,101,2,0,1,0.38423,2,2,"Flanker"
3,102,2,2,1,0.41401,2,2,"Flanker"
3,103,2,1,1,0.39451,2,2,"Flanker"
3,104,1,0,1,0.45285,2,2,"Flanker"
3,105,1,1,1,0.54721,2,2,"Flanker"
3,106,2,0,1,0.56172,2,2,"Flanker"
3,107,1,2,1,0.49737,2,2,"Flanker"
3,108,2,1,1,0.43305,2,2,"Flanker"
3,109,2,0,1,0.4374,2,2,"Flanker"
3,110,1,2,0,0.33063,2,2,"Flanker"
3,111,2,1,1,0.35605,2,2,"Flanker"
3,112,2,2,1,0.32924,2,2,"Flanker"
3,113,2,0,1,0.32234,2,2,"Flanker"
3,114,2,1,1,0.3309,2,2,"Flanker"
3,115,2,2,1,0.31055,2,2,"Flanker"
3,116,2,1,1,0.3694,2,2,"Flanker"
3,117,2,0,1,0.34714,2,2,"Flanker"
3,118,1,0,1,0.60006,2,2,"Flanker"
3,119,2,2,1,0.46214,2,2,"Flanker"
3,120,1,1,1,0.41188,2,2,"Flanker"
3,121,1,0,1,0.4572,2,2,"Flanker"
3,122,1,0,1,0.40698,2,2,"Flanker"
3,123,2,0,1,0.42848,2,2,"Flanker"
3,124,1,0,0,0.28693,2,2,"Flanker"
3,125,1,1,1,0.43307,2,2,"Flanker"
3,126,1,1,1,0.38853,2,2,"Flanker"
3,127,1,2,1,0.36918,2,2,"Flanker"
3,128,2,2,1,0.4517,2,2,"Flanker"
3,129,1,2,1,0.54617,2,2,"Flanker"
3,130,2,1,1,0.43266,2,2,"Flanker"
3,131,2,0,1,0.47816,2,2,"Flanker"
3,132,1,1,1,0.78873,2,2,"Flanker"
3,133,1,1,1,0.44851,2,2,"Flanker"
3,134,2,0,1,0.40597,2,2,"Flanker"
3,135,1,0,1,0.55466,2,2,"Flanker"
3,136,2,2,1,0.35518,2,2,"Flanker"
3,137,2,1,1,0.35802,2,2,"Flanker"
3,138,1,0,1,0.48127,2,2,"Flanker"
3,139,1,1,1,0.42209,2,2,"Flanker"
3,140,1,1,1,0.66625,2,2,"Flanker"
3,141,1,0,1,0.45382,2,2,"Flanker"
3,142,2,0,0,0.276,2,2,"Flanker"
3,143,1,2,1,0.35604,2,2,"Flanker"
3,144,1,1,1,0.36018,2,2,"Flanker"
4,1,2,2,1,0.51077,2,2,"Flanker"
4,2,1,2,1,0.459,2,2,"Flanker"
4,3,1,1,1,0.35178,2,2,"Flanker"
4,4,2,2,1,0.43525,2,2,"Flanker"
4,5,2,0,1,0.36825,2,2,"Flanker"
4,6,2,1,1,0.34008,2,2,"Flanker"
4,7,2,1,1,0.3581,2,2,"Flanker"
4,8,2,1,1,0.31236,2,2,"Flanker"
4,9,1,0,1,0.40368,2,2,"Flanker"
4,10,2,2,1,0.39889,2,2,"Flanker"
4,11,2,1,1,0.35613,2,2,"Flanker"
4,12,2,0,1,0.43147,2,2,"Flanker"
4,13,2,1,1,0.36219,2,2,"Flanker"
4,14,1,2,1,0.51213,2,2,"Flanker"
4,15,1,1,1,0.34974,2,2,"Flanker"
4,16,1,2,1,0.40793,2,2,"Flanker"
4,17,2,0,1,0.37955,2,2,"Flanker"
4,18,1,0,1,0.3594,2,2,"Flanker"
4,19,2,0,1,0.29788,2,2,"Flanker"
4,20,1,0,1,0.33136,2,2,"Flanker"
4,21,2,2,0,0.38391,2,2,"Flanker"
4,22,1,2,1,0.37925,2,2,"Flanker"
4,23,1,0,1,0.3819,2,2,"Flanker"
4,24,1,1,1,0.36935,2,2,"Flanker"
4,25,2,2,0,0.39919,2,2,"Flanker"
4,26,1,2,1,0.35351,2,2,"Flanker"
4,27,1,0,1,0.45883,2,2,"Flanker"
4,28,1,2,1,0.61024,2,2,"Flanker"
4,29,2,1,1,0.34606,2,2,"Flanker"
4,30,1,2,1,0.52466,2,2,"Flanker"
4,31,1,1,1,0.42789,2,2,"Flanker"
4,32,2,2,1,0.42553,2,2,"Flanker"
4,33,2,2,1,0.42289,2,2,"Flanker"
4,34,1,0,1,0.56188,2,2,"Flanker"
4,35,2,0,1,0.42808,2,2,"Flanker"
4,36,2,1,1,0.39831,2,2,"Flanker"
4,37,1,1,1,0.44281,2,2,"Flanker"
4,38,1,1,1,0.5352,2,2,"Flanker"
4,39,1,1,1,0.43088,2,2,"Flanker"
4,40,1,0,1,0.3489,2,2,"Flanker"
4,41,2,1,1,0.41563,2,2,"Flanker"
4,42,2,1,1,0.42035,2,2,"Flanker"
4,43,1,0,1,0.43946,2,2,"Flanker"
4,44,1,2,1,0.33318,2,2,"Flanker"
4,45,1,2,1,0.44623,2,2,"Flanker"
4,46,1,0,1,0.36661,2,2,"Flanker"
4,47,2,1,1,0.48026,2,2,"Flanker"
4,48,1,1,1,0.54229,2,2,"Flanker"
4,49,1,0,1,0.42104,2,2,"Flanker"
4,50,2,0,1,0.44061,2,2,"Flanker"
4,51,2,0,1,0.49457,2,2,"Flanker"
4,52,2,0,1,0.39676,2,2,"Flanker"
4,53,2,2,1,0.54766,2,2,"Flanker"
4,54,1,2,1,0.65106,2,2,"Flanker"
4,55,2,0,1,0.45735,2,2,"Flanker"
4,56,1,2,1,0.46461,2,2,"Flanker"
4,57,2,1,0,0.39859,2,2,"Flanker"
4,58,1,0,1,0.33747,2,2,"Flanker"
4,59,1,0,1,0.38833,2,2,"Flanker"
4,60,2,1,1,0.46458,2,2,"Flanker"
4,61,1,2,1,0.42067,2,2,"Flanker"
4,62,2,1,1,0.3771,2,2,"Flanker"
4,63,1,2,1,0.38152,2,2,"Flanker"
4,64,2,0,1,0.30027,2,2,"Flanker"
4,65,1,0,1,0.41122,2,2,"Flanker"
4,66,1,2,0,0.31115,2,2,"Flanker"
4,67,2,1,1,0.37062,2,2,"Flanker"
4,68,1,0,1,0.55643,2,2,"Flanker"
4,69,1,2,0,0.36324,2,2,"Flanker"
4,70,1,1,1,0.38344,2,2,"Flanker"
4,71,2,2,1,0.48223,2,2,"Flanker"
4,72,1,1,1,0.50511,2,2,"Flanker"
4,73,2,0,1,0.37031,2,2,"Flanker"
4,74,2,0,1,0.46639,2,2,"Flanker"
4,75,2,0,1,0.33539,2,2,"Flanker"
4,76,2,2,1,0.30105,2,2,"Flanker"
4,77,1,1,1,0.63835,2,2,"Flanker"
4,78,2,2,1,0.46135,2,2,"Flanker"
4,79,2,0,1,0.30086,2,2,"Flanker"
4,80,1,2,1,0.55787,2,2,"Flanker"
4,81,2,0,1,0.42863,2,2,"Flanker"
4,82,2,0,1,0.38569,2,2,"Flanker"
4,83,1,0,1,0.55035,2,2,"Flanker"
4,84,1,1,1,0.42835,2,2,"Flanker"
4,85,1,1,1,0.38738,2,2,"Flanker"
4,86,2,0,1,0.47847,2,2,"Flanker"
4,87,1,0,1,0.42806,2,2,"Flanker"
4,88,1,2,0,0.53631,2,2,"Flanker"
4,89,2,0,1,0.40748,2,2,"Flanker"
4,90,2,1,1,0.32407,2,2,"Flanker"
4,91,1,0,1,0.46127,2,2,"Flanker"
4,92,1,0,1,0.41308,2,2,"Flanker"
4,93,2,2,1,0.46685,2,2,"Flanker"
4,94,2,0,1,0.54235,2,2,"Flanker"
4,95,2,1,1,0.38955,2,2,"Flanker"
4,96,2,1,1,0.39301,2,2,"Flanker"
4,97,1,0,1,0.4451,2,2,"Flanker"
4,98,1,0,1,0.48226,2,2,"Flanker"
4,99,1,2,1,0.42428,2,2,"Flanker"
4,100,1,2,1,0.38246,2,2,"Flanker"
4,101,2,1,1,0.47475,2,2,"Flanker"
4,102,2,0,1,0.34273,2,2,"Flanker"
4,103,1,2,1,0.53122,2,2,"Flanker"
4,104,2,0,1,0.42493,2,2,"Flanker"
4,105,2,1,1,0.43693,2,2,"Flanker"
4,106,1,1,1,0.46479,2,2,"Flanker"
4,107,1,2,1,0.51108,2,2,"Flanker"
4,108,1,2,1,0.43666,2,2,"Flanker"
4,109,2,1,1,0.49751,2,2,"Flanker"
4,110,1,0,1,0.44908,2,2,"Flanker"
4,111,2,1,1,0.40672,2,2,"Flanker"
4,112,2,2,1,0.33733,2,2,"Flanker"
4,113,2,2,1,0.37974,2,2,"Flanker"
4,114,1,2,1,0.48786,2,2,"Flanker"
4,115,2,2,1,0.46951,2,2,"Flanker"
4,116,1,0,1,0.4673,2,2,"Flanker"
4,117,2,0,1,0.52182,2,2,"Flanker"
4,118,2,2,1,0.68925,2,2,"Flanker"
4,119,2,2,1,0.70681,2,2,"Flanker"
4,120,2,1,1,0.38372,2,2,"Flanker"
4,121,1,1,1,0.42165,2,2,"Flanker"
4,122,2,2,1,0.52021,2,2,"Flanker"
4,123,2,2,1,0.36677,2,2,"Flanker"
4,124,2,1,1,0.37807,2,2,"Flanker"
4,125,1,1,1,0.60462,2,2,"Flanker"
4,126,1,0,1,0.48603,2,2,"Flanker"
4,127,2,2,1,0.57161,2,2,"Flanker"
4,128,1,1,1,0.4285,2,2,"Flanker"
4,129,1,1,1,0.36197,2,2,"Flanker"
4,130,1,1,1,0.40566,2,2,"Flanker"
4,131,1,1,1,0.36825,2,2,"Flanker"
4,132,2,2,1,0.43494,2,2,"Flanker"
4,133,2,2,1,0.31128,2,2,"Flanker"
4,134,1,1,1,0.46,2,2,"Flanker"
4,135,1,1,1,0.41516,2,2,"Flanker"
4,136,2,2,1,0.50764,2,2,"Flanker"
4,137,1,2,1,0.47497,2,2,"Flanker"
4,138,2,0,1,0.44762,2,2,"Flanker"
4,139,2,0,1,0.34108,2,2,"Flanker"
4,140,2,1,1,0.40962,2,2,"Flanker"
4,141,2,2,1,0.38897,2,2,"Flanker"
4,142,1,1,1,0.43991,2,2,"Flanker"
4,143,1,0,1,0.37621,2,2,"Flanker"
4,144,1,1,1,0.3598,2,2,"Flanker"
5,1,2,1,1,0.45565,2,2,"Flanker"
5,2,1,1,1,0.38118,2,2,"Flanker"
5,3,1,2,1,0.36086,2,2,"Flanker"
5,4,2,2,1,0.40239,2,2,"Flanker"
5,5,2,1,1,0.35175,2,2,"Flanker"
5,6,2,2,0,0.41059,2,2,"Flanker"
5,7,2,1,1,0.29583,2,2,"Flanker"
5,8,2,1,1,0.48877,2,2,"Flanker"
5,9,1,2,1,0.47119,2,2,"Flanker"
5,10,2,0,1,0.39596,2,2,"Flanker"
5,11,2,0,1,0.37805,2,2,"Flanker"
5,12,1,0,1,0.46883,2,2,"Flanker"
5,13,1,0,1,0.48902,2,2,"Flanker"
5,14,1,2,1,0.35233,2,2,"Flanker"
5,15,2,0,0,0.29759,2,2,"Flanker"
5,16,2,1,1,0.41251,2,2,"Flanker"
5,17,2,0,1,0.34459,2,2,"Flanker"
5,18,1,0,1,0.44224,2,2,"Flanker"
5,19,2,1,0,0.27218,2,2,"Flanker"
5,20,1,2,1,0.33731,2,2,"Flanker"
5,21,1,1,1,0.36427,2,2,"Flanker"
5,22,1,1,1,0.36736,2,2,"Flanker"
5,23,2,2,1,0.402,2,2,"Flanker"
5,24,1,0,1,0.31888,2,2,"Flanker"
5,25,2,1,1,0.33627,2,2,"Flanker"
5,26,2,2,0,0.29943,2,2,"Flanker"
5,27,1,2,1,0.28558,2,2,"Flanker"
5,28,1,2,1,0.3204,2,2,"Flanker"
5,29,1,0,1,0.28849,2,2,"Flanker"
5,30,2,0,1,0.45783,2,2,"Flanker"
5,31,1,1,1,0.31179,2,2,"Flanker"
5,32,1,2,0,0.3375,2,2,"Flanker"
5,33,2,2,1,0.28326,2,2,"Flanker"
5,34,2,2,1,0.3104,2,2,"Flanker"
5,35,1,2,1,0.43788,2,2,"Flanker"
5,36,1,0,1,0.38697,2,2,"Flanker"
5,37,2,2,1,0.473,2,2,"Flanker"
5,38,2,2,1,0.5097,2,2,"Flanker"
5,39,1,0,1,0.55495,2,2,"Flanker"
5,40,2,0,1,0.44343,2,2,"Flanker"
5,41,1,1,1,0.38439,2,2,"Flanker"
5,42,1,1,1,0.40502,2,2,"Flanker"
5,43,2,1,0,0.31329,2,2,"Flanker"
5,44,1,1,1,0.35574,2,2,"Flanker"
5,45,2,0,1,0.43769,2,2,"Flanker"
5,46,1,2,1,0.49848,2,2,"Flanker"
5,47,1,2,1,0.68092,2,2,"Flanker"
5,48,2,2,1,0.40468,2,2,"Flanker"
5,49,1,1,1,0.41566,2,2,"Flanker"
5,50,1,0,1,0.33322,2,2,"Flanker"
5,51,2,1,1,0.39089,2,2,"Flanker"
5,52,2,1,0,0.30941,2,2,"Flanker"
5,53,2,0,1,0.4148,2,2,"Flanker"
5,54,1,0,1,0.37654,2,2,"Flanker"
5,55,1,1,1,0.45146,2,2,"Flanker"
5,56,1,0,1,0.41696,2,2,"Flanker"
5,57,1,1,1,0.34885,2,2,"Flanker"
5,58,2,0,0,0.34464,2,2,"Flanker"
5,59,2,2,1,0.45164,2,2,"Flanker"
5,60,2,0,1,0.35173,2,2,"Flanker"
5,61,1,1,1,0.4023,2,2,"Flanker"
5,62,1,2,0,0.39276,2,2,"Flanker"
5,63,1,0,1,0.45951,2,2,"Flanker"
5,64,1,1,1,0.40028,2,2,"Flanker"
5,65,1,2,1,0.34979,2,2,"Flanker"
5,66,1,0,1,0.3589,2,2,"Flanker"
5,67,2,2,1,0.3876,2,2,"Flanker"
5,68,1,2,1,0.44753,2,2,"Flanker"
5,69,1,1,0,0.38008,2,2,"Flanker"
5,70,1,0,1,0.47865,2,2,"Flanker"
5,71,2,1,0,0.59776,2,2,"Flanker"
5,72,2,2,1,0.3896,2,2,"Flanker"
5,73,1,1,1,0.36896,2,2,"Flanker"
5,74,2,2,1,0.3882,2,2,"Flanker"
5,75,2,1,1,0.44792,2,2,"Flanker"
5,76,2,0,0,0.3121,2,2,"Flanker"
5,77,1,1,1,0.4246,2,2,"Flanker"
5,78,1,2,1,0.41339,2,2,"Flanker"
5,79,1,0,1,0.35382,2,2,"Flanker"
5,80,1,1,1,0.73263,2,2,"Flanker"
5,81,1,1,1,0.3849,2,2,"Flanker"
5,82,2,1,1,0.53878,2,2,"Flanker"
5,83,1,1,1,0.43484,2,2,"Flanker"
5,84,1,0,1,0.4095,2,2,"Flanker"
5,85,2,0,1,0.39685,2,2,"Flanker"
5,86,2,2,1,0.31506,2,2,"Flanker"
5,87,2,2,1,0.32997,2,2,"Flanker"
5,88,1,0,0,0.34739,2,2,"Flanker"
5,89,2,2,1,0.65452,2,2,"Flanker"
5,90,2,2,1,0.42447,2,2,"Flanker"
5,91,1,0,1,0.42924,2,2,"Flanker"
5,92,2,0,1,0.4417,2,2,"Flanker"
5,93,2,0,1,0.42346,2,2,"Flanker"
5,94,1,0,1,0.4467,2,2,"Flanker"
5,95,2,1,1,0.66589,2,2,"Flanker"
5,96,2,0,1,0.45861,2,2,"Flanker"
5,97,1,0,1,0.44886,2,2,"Flanker"
5,98,1,2,1,0.382,2,2,"Flanker"
5,99,1,0,1,0.33025,2,2,"Flanker"
5,100,2,2,1,0.57203,2,2,"Flanker"
5,101,2,1,1,0.27639,2,2,"Flanker"
5,102,1,2,0,0.29318,2,2,"Flanker"
5,103,2,1,1,0.31302,2,2,"Flanker"
5,104,2,2,1,0.32119,2,2,"Flanker"
5,105,1,2,1,0.2914,2,2,"Flanker"
5,106,1,1,1,0.30179,2,2,"Flanker"
5,107,1,0,1,0.29362,2,2,"Flanker"
5,108,1,0,1,0.33668,2,2,"Flanker"
5,109,2,0,1,0.41909,2,2,"Flanker"
5,110,2,1,1,0.34248,2,2,"Flanker"
5,111,2,2,1,0.27441,2,2,"Flanker"
5,112,1,0,1,0.36497,2,2,"Flanker"
5,113,2,0,1,0.43097,2,2,"Flanker"
5,114,1,2,1,0.34707,2,2,"Flanker"
5,115,1,2,0,0.29476,2,2,"Flanker"
5,116,1,1,1,0.42285,2,2,"Flanker"
5,117,2,1,1,0.28331,2,2,"Flanker"
5,118,2,1,1,0.41465,2,2,"Flanker"
5,119,1,0,1,0.61707,2,2,"Flanker"
5,120,1,2,0,0.33173,2,2,"Flanker"
5,121,2,1,1,0.36561,2,2,"Flanker"
5,122,1,1,1,0.5041,2,2,"Flanker"
5,123,2,2,1,0.34439,2,2,"Flanker"
5,124,1,2,1,0.38704,2,2,"Flanker"
5,125,2,0,0,0.40643,2,2,"Flanker"
5,126,2,2,0,0.29698,2,2,"Flanker"
5,127,1,1,1,0.34664,2,2,"Flanker"
5,128,2,0,1,0.55043,2,2,"Flanker"
5,129,2,0,1,0.59763,2,2,"Flanker"
5,130,2,1,1,0.36895,2,2,"Flanker"
5,131,1,2,1,0.30537,2,2,"Flanker"
5,132,1,2,1,0.3087,2,2,"Flanker"
5,133,2,1,0,0.35034,2,2,"Flanker"
5,134,1,1,1,0.36801,2,2,"Flanker"
5,135,2,0,1,0.43477,2,2,"Flanker"
5,136,2,0,1,0.28963,2,2,"Flanker"
5,137,2,0,1,0.31507,2,2,"Flanker"
5,138,1,1,1,0.45143,2,2,"Flanker"
5,139,1,2,1,0.51246,2,2,"Flanker"
5,140,2,1,0,0.36078,2,2,"Flanker"
5,141,2,0,0,0.30113,2,2,"Flanker"
5,142,2,2,0,0.30763,2,2,"Flanker"
5,143,2,1,1,0.39299,2,2,"Flanker"
5,144,2,2,1,0.36989,2,2,"Flanker"
1,1,2,1,1,0.88263,3,1,"Flanker"
1,2,1,2,1,0.76991,3,1,"Flanker"
1,3,1,2,1,0.4782,3,1,"Flanker"
1,4,2,2,0,0.38013,3,1,"Flanker"
1,5,1,0,1,0.51879,3,1,"Flanker"
1,6,2,0,1,0.51115,3,1,"Flanker"
1,7,1,2,1,1.1021,3,1,"Flanker"
1,8,2,1,1,0.41849,3,1,"Flanker"
1,9,2,1,1,0.43856,3,1,"Flanker"
1,10,2,0,1,0.41072,3,1,"Flanker"
1,11,1,2,0,0.36015,3,1,"Flanker"
1,12,2,2,1,0.33178,3,1,"Flanker"
1,13,2,1,1,0.39023,3,1,"Flanker"
1,14,2,2,1,0.6007,3,1,"Flanker"
1,15,2,0,1,0.36961,3,1,"Flanker"
1,16,2,0,1,0.51805,3,1,"Flanker"
1,17,1,0,0,0.3885,3,1,"Flanker"
1,18,1,1,1,0.51279,3,1,"Flanker"
1,19,1,2,1,0.59761,3,1,"Flanker"
1,20,1,1,1,0.45509,3,1,"Flanker"
1,21,2,0,1,0.58852,3,1,"Flanker"
1,22,1,1,1,0.5098,3,1,"Flanker"
1,23,2,2,1,0.58084,3,1,"Flanker"
1,24,2,0,1,0.4519,3,1,"Flanker"
1,25,2,2,1,0.38522,3,1,"Flanker"
1,26,2,1,1,0.43641,3,1,"Flanker"
1,27,2,2,1,0.55517,3,1,"Flanker"
1,28,2,1,0,0.40328,3,1,"Flanker"
1,29,2,1,1,0.4809,3,1,"Flanker"
1,30,1,1,1,0.48397,3,1,"Flanker"
1,31,2,2,1,0.47412,3,1,"Flanker"
1,32,1,1,1,0.42505,3,1,"Flanker"
1,33,2,0,1,0.52745,3,1,"Flanker"
1,34,2,1,1,0.43643,3,1,"Flanker"
1,35,1,1,1,0.46454,3,1,"Flanker"
1,36,1,1,1,0.49537,3,1,"Flanker"
1,37,1,2,1,0.44536,3,1,"Flanker"
1,38,1,0,1,0.50703,3,1,"Flanker"
1,39,2,0,1,0.41667,3,1,"Flanker"
1,40,1,2,1,0.59724,3,1,"Flanker"
1,41,2,2,0,0.39725,3,1,"Flanker"
1,42,1,2,1,0.48985,3,1,"Flanker"
1,43,1,1,1,1.5522,3,1,"Flanker"
1,44,2,1,1,0.33617,3,1,"Flanker"
1,45,1,2,0,0.38672,3,1,"Flanker"
1,46,2,1,1,0.41421,3,1,"Flanker"
1,47,2,1,1,0.40978,3,1,"Flanker"
1,48,2,2,0,0.31874,3,1,"Flanker"
1,49,2,0,1,0.53711,3,1,"Flanker"
1,50,1,0,1,0.47215,3,1,"Flanker"
1,51,2,0,1,0.5164,3,1,"Flanker"
1,52,2,1,1,0.40661,3,1,"Flanker"
1,53,1,0,1,0.4562,3,1,"Flanker"
1,54,2,2,1,0.57274,3,1,"Flanker"
1,55,2,2,1,0.64459,3,1,"Flanker"
1,56,2,2,1,0.56693,3,1,"Flanker"
1,57,2,0,1,0.42368,3,1,"Flanker"
1,58,2,2,1,0.81918,3,1,"Flanker"
1,59,1,0,1,0.41115,3,1,"Flanker"
1,60,1,2,1,0.70151,3,1,"Flanker"
1,61,1,1,0,0.49003,3,1,"Flanker"
1,62,2,1,1,0.47138,3,1,"Flanker"
1,63,2,1,1,0.46839,3,1,"Flanker"
1,64,2,2,1,0.63423,3,1,"Flanker"
1,65,1,1,1,0.49224,3,1,"Flanker"
1,66,2,1,1,0.47431,3,1,"Flanker"
1,67,2,1,1,0.44995,3,1,"Flanker"
1,68,2,1,1,0.37382,3,1,"Flanker"
1,69,2,2,1,0.53813,3,1,"Flanker"
1,70,1,1,1,0.577,3,1,"Flanker"
1,71,1,1,1,0.66571,3,1,"Flanker"
1,72,2,2,1,0.6208,3,1,"Flanker"
1,73,1,0,1,0.51017,3,1,"Flanker"
1,74,2,1,1,0.48508,3,1,"Flanker"
1,75,2,2,1,0.64251,3,1,"Flanker"
1,76,2,0,1,0.60334,3,1,"Flanker"
1,77,1,2,1,0.54023,3,1,"Flanker"
1,78,1,2,0,0.46752,3,1,"Flanker"
1,79,1,0,1,0.86656,3,1,"Flanker"
1,80,1,1,1,0.48179,3,1,"Flanker"
1,81,2,0,1,0.66264,3,1,"Flanker"
1,82,1,1,1,1.0843,3,1,"Flanker"
1,83,1,0,1,0.58276,3,1,"Flanker"
1,84,1,0,1,0.51749,3,1,"Flanker"
1,85,2,0,1,0.58888,3,1,"Flanker"
1,86,1,0,1,0.51013,3,1,"Flanker"
1,87,1,0,1,0.91645,3,1,"Flanker"
1,88,1,2,0,0.54805,3,1,"Flanker"
1,89,1,1,0,0.34147,3,1,"Flanker"
1,90,2,0,1,0.47216,3,1,"Flanker"
1,91,1,0,1,0.48434,3,1,"Flanker"
1,92,1,2,1,0.71437,3,1,"Flanker"
1,93,2,2,1,0.43005,3,1,"Flanker"
1,94,2,0,1,0.41977,3,1,"Flanker"
1,95,2,0,1,0.36994,3,1,"Flanker"
1,96,1,2,1,0.87441,3,1,"Flanker"
1,97,2,2,1,0.58727,3,1,"Flanker"
1,98,2,1,1,0.46094,3,1,"Flanker"
1,99,2,0,1,0.68146,3,1,"Flanker"
1,100,1,0,1,0.55782,3,1,"Flanker"
1,101,1,2,0,0.39655,3,1,"Flanker"
1,102,2,0,1,0.72288,3,1,"Flanker"
1,103,1,2,1,0.7385,3,1,"Flanker"
1,104,2,1,1,0.67249,3,1,"Flanker"
1,105,2,2,1,0.50558,3,1,"Flanker"
1,106,1,0,1,0.49883,3,1,"Flanker"
1,107,2,1,1,0.50278,3,1,"Flanker"
1,108,1,2,0,1.0051,3,1,"Flanker"
1,109,1,1,0,0.39253,3,1,"Flanker"
1,110,1,1,1,0.57207,3,1,"Flanker"
1,111,1,0,1,1.3878,3,1,"Flanker"
1,112,1,1,1,0.41491,3,1,"Flanker"
1,113,1,1,1,0.51504,3,1,"Flanker"
1,114,1,0,1,1.0663,3,1,"Flanker"
1,115,2,0,1,1.1976,3,1,"Flanker"
1,116,2,0,1,0.66987,3,1,"Flanker"
1,117,2,0,1,0.73883,3,1,"Flanker"
1,118,2,2,1,1.123,3,1,"Flanker"
1,119,1,2,1,0.97012,3,1,"Flanker"
1,120,1,1,1,0.75481,3,1,"Flanker"
1,121,2,1,1,0.78417,3,1,"Flanker"
1,122,1,0,1,0.55703,3,1,"Flanker"
1,123,1,2,1,0.76512,3,1,"Flanker"
1,124,1,0,1,0.68928,3,1,"Flanker"
1,125,2,2,1,0.65434,3,1,"Flanker"
1,126,1,0,1,0.76638,3,1,"Flanker"
1,127,1,1,1,0.3872,3,1,"Flanker"
1,128,1,0,1,0.37563,3,1,"Flanker"
1,129,1,1,1,0.53853,3,1,"Flanker"
1,130,1,1,1,0.54506,3,1,"Flanker"
1,131,1,2,1,0.60087,3,1,"Flanker"
1,132,1,1,1,1.2097,3,1,"Flanker"
1,133,1,0,1,0.93889,3,1,"Flanker"
1,134,1,2,1,0.75496,3,1,"Flanker"
1,135,1,2,1,0.83174,3,1,"Flanker"
1,136,2,0,1,0.9736,3,1,"Flanker"
